Time, AccX, AccY, AccZ, GyrX, GyrY, GyrZ, Mag(1), Mag(2), Mag(3)
2020-05-11 13:20:37.838890, -0.004040, 0.003118, 1.000115, -0.002239, 0.000179, -0.001094, -0.358355, -0.033620, 7.644006
2020-05-11 13:20:37.892081, -0.003668, 0.002569, 1.000845, -0.002164, 0.000173, 0.000714, -1.333839, -0.206887, 13.901581
2020-05-11 13:20:37.944908, -0.002428, 0.002752, 1.000663, -0.003421, 0.000610, -0.000491, -2.063826, -0.333303, 18.683914
2020-05-11 13:20:37.997778, -0.002056, 0.003057, 1.001697, -0.002569, -0.000001, -0.000031, -2.703815, -0.294163, 22.440048
2020-05-11 13:20:38.050498, -0.003792, 0.002935, 1.001089, -0.002335, -0.000591, 0.000560, -3.087007, -0.427519, 25.500160
2020-05-11 13:20:38.103282, -0.002304, 0.003729, 1.000845, -0.001667, 0.000166, -0.001230, -3.550360, -0.485413, 28.102243
2020-05-11 13:20:38.156154, -0.002180, 0.002447, 1.001576, -0.003088, 0.000899, 0.000140, -3.859443, -0.470741, 29.887547
2020-05-11 13:20:38.208888, -0.003296, 0.003362, 1.000724, -0.002985, 0.000721, -0.000751, -4.084309, -0.452904, 31.562759
2020-05-11 13:20:38.261629, -0.003172, 0.003118, 1.000115, -0.002738, -0.000041, 0.000455, -4.129802, -0.603302, 32.644337
2020-05-11 13:20:38.314567, -0.003172, 0.002325, 1.000602, -0.000875, 0.000108, 0.000440, -4.356596, -0.595546, 33.712986
2020-05-11 13:20:38.367440, -0.002738, 0.001958, 0.999446, -0.001141, 0.000105, 0.000278, -4.459632, -0.455167, 34.623112
2020-05-11 13:20:38.420208, -0.003234, 0.002874, 1.000602, -0.000955, -0.000046, -0.000470, -4.693261, -0.446544, 35.394794
2020-05-11 13:20:38.472990, -0.001932, 0.001348, 1.001271, -0.002400, 0.000250, -0.000011, -4.891364, -0.335966, 36.067345
2020-05-11 13:20:38.525827, -0.003234, 0.003057, 1.000602, -0.001582, 0.000242, 0.000285, -4.921046, -0.259702, 36.311928
2020-05-11 13:20:38.578672, -0.002428, 0.002752, 1.001089, -0.002119, 0.000824, 0.001308, -5.135191, -0.259678, 36.763279
2020-05-11 13:20:38.631469, -0.002366, 0.002569, 1.000845, -0.002787, 0.000354, 0.000527, -5.284108, -0.308449, 37.086590
2020-05-11 13:20:38.684282, -0.002428, 0.002386, 1.001271, -0.001956, 0.000785, 0.001838, -5.341641, -0.292577, 37.176716
2020-05-11 13:20:38.737070, -0.002862, 0.003240, 1.001515, -0.002186, 0.000611, 0.000005, -5.314867, -0.200595, 37.362133
2020-05-11 13:20:38.789809, -0.002118, 0.001958, 1.000663, -0.001670, 0.000443, 0.000448, -5.215049, -0.291676, 37.411678
2020-05-11 13:20:38.842583, -0.004226, 0.002569, 1.000785, -0.002057, -0.000752, 0.000138, -5.258394, -0.443826, 37.300228
2020-05-11 13:20:38.895422, -0.002924, 0.002264, 1.000724, -0.001251, 0.001192, 0.000576, -5.276270, -0.400878, 37.289516
2020-05-11 13:20:38.948161, -0.001684, 0.002508, 1.001271, -0.001947, 0.000709, -0.000034, -5.374571, -0.403113, 37.251892
2020-05-11 13:20:39.000947, -0.002738, 0.001897, 1.000054, -0.001882, -0.000200, -0.000328, -5.212411, -0.441493, 37.329296
2020-05-11 13:20:39.053671, -0.002614, 0.002935, 1.001393, 0.000100, -0.000046, -0.000317, -5.177884, -0.539284, 37.516159
2020-05-11 13:20:39.106473, -0.003854, 0.003179, 1.001637, -0.000346, -0.000487, -0.001487, -5.021462, -0.538233, 37.383812
2020-05-11 13:20:39.159222, -0.002490, 0.002569, 1.000480, -0.001221, 0.001005, 0.000481, -5.030725, -0.561787, 37.420307
2020-05-11 13:20:39.211998, -0.003730, 0.003851, 1.000115, -0.000590, 0.000381, 0.000318, -5.054935, -0.586729, 37.318752
2020-05-11 13:20:39.264725, -0.002118, 0.001958, 1.001028, -0.001751, -0.000074, 0.000159, -5.085503, -0.570090, 37.385693
2020-05-11 13:20:39.317614, -0.002800, 0.003362, 1.000785, -0.001250, 0.000519, 0.000006, -4.997957, -0.422605, 37.442150
2020-05-11 13:20:39.370348, -0.003048, 0.003057, 1.001028, -0.001060, 0.001535, 0.001187, -4.972721, -0.481482, 37.283928
2020-05-11 13:20:39.423153, -0.002676, 0.002325, 1.001576, -0.001173, 0.000598, 0.000262, -4.930131, -0.461497, 37.241611
2020-05-11 13:20:39.475879, -0.001312, 0.003729, 1.001028, 0.000047, 0.000135, 0.001434, -4.901660, -1.049288, 37.373371
2020-05-11 13:20:39.528655, -0.003296, 0.002447, 1.001576, -0.001578, -0.001051, 0.001534, -4.867683, -1.031619, 37.539795
2020-05-11 13:20:39.581599, -0.002614, 0.002996, 1.001332, -0.002559, -0.000130, -0.001027, -4.862901, -0.822323, 37.777534
2020-05-11 13:20:39.634381, -0.002180, 0.002081, 1.001393, 0.000479, -0.000421, -0.001435, -4.875875, -0.807355, 37.831165
2020-05-11 13:20:39.687211, -0.003606, 0.003607, 1.001211, -0.001456, 0.000774, 0.000827, -4.953455, -0.594121, 37.737511
2020-05-11 13:20:39.740015, -0.002304, 0.001653, 1.000419, -0.001555, -0.000875, -0.000382, -4.858719, -0.533312, 37.685833
2020-05-11 13:20:39.792775, -0.002614, 0.003179, 1.000480, -0.001799, -0.000256, 0.000221, -4.883730, -0.472467, 37.824631
2020-05-11 13:20:39.845569, -0.002924, 0.002569, 1.000967, -0.000262, -0.000690, -0.000819, -4.668539, -0.429890, 38.086758
2020-05-11 13:20:39.898463, -0.002304, 0.003057, 1.001211, -0.000401, 0.000219, -0.002563, -4.669986, -0.292149, 37.933270
2020-05-11 13:20:39.951501, -0.004102, 0.001714, 1.001880, 0.001236, 0.000950, -0.000264, -4.441544, -0.310030, 37.519924
2020-05-11 13:20:40.004302, -0.002800, 0.002874, 1.001332, -0.000134, 0.000770, 0.001221, -4.600389, -0.263348, 37.337433
2020-05-11 13:20:40.057158, -0.003854, 0.002081, 1.003584, -0.001753, -0.000289, 0.000885, -4.469866, -0.201607, 37.429691
2020-05-11 13:20:40.109928, -0.003172, 0.002752, 1.000845, -0.001547, -0.000132, -0.001211, -4.589448, -0.255894, 37.593571
2020-05-11 13:20:40.162751, -0.002428, 0.002630, 1.000115, -0.000462, -0.000570, -0.000580, -4.662713, -0.152952, 37.814743
2020-05-11 13:20:40.215551, -0.003296, 0.002813, 1.000298, -0.000447, 0.000040, 0.000030, -4.794125, -0.198673, 37.762146
2020-05-11 13:20:40.268346, -0.003668, 0.002691, 1.000906, -0.001465, 0.000333, 0.001210, -4.848855, -0.131570, 38.001904
2020-05-11 13:20:40.321101, -0.002924, 0.002508, 1.001515, -0.000088, 0.000027, -0.001045, -4.836639, -0.224259, 37.917686
2020-05-11 13:20:40.373892, -0.003234, 0.003240, 1.000663, -0.002004, 0.000912, -0.000272, -4.950066, -0.267917, 37.661453
2020-05-11 13:20:40.426651, -0.002056, 0.002081, 1.000906, -0.000609, -0.000447, 0.000771, -4.951207, -0.193064, 37.924255
2020-05-11 13:20:40.479443, -0.002676, 0.002752, 1.001819, -0.001769, -0.000285, 0.000597, -4.789721, -0.212466, 37.713196
2020-05-11 13:20:40.532185, -0.001870, 0.001897, 1.000602, 0.000947, -0.000127, 0.000725, -4.890131, -0.270680, 37.741924
2020-05-11 13:20:40.584980, -0.003048, 0.002508, 1.001819, -0.000413, -0.000714, 0.000701, -4.869659, -0.366041, 37.825924
2020-05-11 13:20:40.637737, -0.002180, 0.002508, 1.001880, 0.000043, -0.000395, 0.000087, -4.864482, -0.332551, 37.942516
2020-05-11 13:20:40.690581, -0.002738, 0.003362, 1.002063, -0.001139, 0.000357, 0.000084, -4.865941, -0.171587, 38.401886
2020-05-11 13:20:40.743480, -0.002676, 0.002935, 1.001515, -0.000953, 0.000197, 0.000672, -4.990307, -0.176988, 38.815872
2020-05-11 13:20:40.796562, -0.002862, 0.003057, 1.001271, -0.000626, 0.000338, 0.000945, -5.028201, 0.050444, 39.042461
2020-05-11 13:20:40.849506, -0.002986, 0.002386, 1.001150, -0.000458, -0.000411, 0.000470, -5.142516, 0.037229, 39.023251
2020-05-11 13:20:40.902421, -0.002862, 0.001226, 1.001697, -0.000590, -0.000988, 0.000012, -5.177967, 0.105941, 39.324585
2020-05-11 13:20:40.955185, -0.002490, 0.003668, 1.002063, 0.000168, 0.000374, 0.000454, -4.881528, 0.258491, 39.141445
2020-05-11 13:20:41.007980, -0.002242, 0.003118, 1.000419, -0.000576, 0.000066, 0.000144, -5.025177, 0.191469, 38.713097
2020-05-11 13:20:41.060680, -0.003358, 0.002752, 1.001819, -0.000114, -0.000822, -0.000009, -5.100897, 0.131753, 38.260010
2020-05-11 13:20:41.113499, -0.003420, 0.002447, 1.001271, 0.001071, 0.000239, 0.000435, -5.301472, 0.022992, 38.002136
2020-05-11 13:20:41.166238, -0.002552, 0.001714, 1.000967, -0.001032, -0.000212, 0.000272, -5.209932, -0.125004, 38.193897
2020-05-11 13:20:41.219042, -0.003606, 0.002325, 1.001454, -0.000554, -0.000057, 0.000559, -5.147901, -0.212908, 37.899853
2020-05-11 13:20:41.271763, -0.002552, 0.002447, 1.001515, -0.000831, -0.000941, 0.000392, -5.176675, -0.368613, 37.827328
2020-05-11 13:20:41.324530, -0.003420, 0.003057, 1.001758, -0.000804, -0.000910, 0.001117, -5.188495, -0.346807, 37.900055
2020-05-11 13:20:41.377607, -0.003358, 0.003057, 1.002184, -0.000039, 0.000892, -0.000396, -5.169951, -0.420844, 37.801338
2020-05-11 13:20:41.430446, -0.003606, 0.002508, 1.002489, -0.001514, -0.000024, -0.000678, -5.076715, -0.345900, 37.826965
2020-05-11 13:20:41.483167, -0.002676, 0.002264, 1.000785, 0.000308, 0.000125, 0.000968, -5.231727, -0.426217, 37.728340
2020-05-11 13:20:41.536040, -0.002862, 0.002935, 1.000480, -0.000440, 0.000564, 0.000198, -5.215736, -0.447779, 37.678497
2020-05-11 13:20:41.588875, -0.002924, 0.003546, 1.002002, 0.001051, 0.001283, -0.000990, -5.197344, -0.428436, 37.708355
2020-05-11 13:20:41.641632, -0.002738, 0.002264, 1.001637, -0.000460, -0.000974, -0.000219, -5.160230, -0.388566, 37.990833
2020-05-11 13:20:41.694442, -0.002614, 0.003240, 1.001758, -0.001774, -0.000351, -0.000654, -5.046538, -0.344473, 37.964035
2020-05-11 13:20:41.747229, -0.003048, 0.002691, 1.002184, -0.000091, 0.000399, 0.000106, -5.078785, -0.254309, 38.093681
2020-05-11 13:20:41.800011, -0.002676, 0.002081, 1.000541, -0.001121, -0.000058, -0.000341, -5.104583, -0.237067, 38.418221
2020-05-11 13:20:41.852813, -0.001994, 0.002569, 1.002549, -0.000198, -0.000351, -0.000034, -5.226021, -0.278163, 38.605213
2020-05-11 13:20:41.905610, -0.003482, 0.002752, 1.001576, 0.000990, -0.000339, -0.001066, -5.211172, -0.250052, 38.615341
2020-05-11 13:20:41.958450, -0.002242, 0.002447, 1.001211, -0.001110, -0.000033, -0.000735, -5.081692, -0.239760, 38.324177
2020-05-11 13:20:42.011305, -0.002800, 0.002630, 1.001819, -0.000040, -0.000770, 0.000765, -5.129309, -0.347404, 38.527073
2020-05-11 13:20:42.064167, -0.002738, 0.001287, 1.002245, 0.000700, 0.000289, -0.001179, -5.094602, -0.561593, 38.302956
2020-05-11 13:20:42.116984, -0.003110, 0.002325, 1.002245, -0.000357, -0.000163, 0.002108, -5.218036, -0.617067, 38.051022
2020-05-11 13:20:42.169961, -0.003296, 0.002691, 1.001150, -0.000640, 0.000433, 0.000266, -5.221584, -0.673645, 37.837852
2020-05-11 13:20:42.222731, -0.002056, 0.003424, 1.001454, -0.000767, 0.000566, 0.000848, -5.336422, -0.700610, 37.443592
2020-05-11 13:20:42.275572, -0.002738, 0.002569, 1.002063, 0.000145, -0.001077, 0.000081, -5.260292, -0.636799, 37.349003
2020-05-11 13:20:42.328341, -0.003172, 0.002508, 1.002367, 0.000140, 0.000878, -0.000955, -5.300188, -0.646739, 37.482529
2020-05-11 13:20:42.381130, -0.001932, 0.002569, 1.002975, 0.000135, 0.000554, -0.000480, -5.214505, -0.593702, 37.606785
2020-05-11 13:20:42.433878, -0.002800, 0.003118, 1.001697, 0.000278, -0.000203, -0.000759, -5.381159, -0.600064, 37.627739
2020-05-11 13:20:42.486713, -0.003358, 0.002935, 1.001271, -0.000026, -0.000934, -0.001325, -5.094482, -0.580758, 37.554432
2020-05-11 13:20:42.539455, -0.002490, 0.002081, 1.000419, -0.000173, -0.000460, -0.001133, -5.089140, -0.522621, 37.661400
2020-05-11 13:20:42.592244, -0.003048, 0.002325, 1.000906, 0.001309, 0.001031, 0.000234, -4.956067, -0.598088, 37.572643
2020-05-11 13:20:42.645075, -0.002366, 0.003179, 1.000967, -0.000063, -0.000479, 0.000078, -4.956008, -0.597473, 37.757324
2020-05-11 13:20:42.697859, -0.003110, 0.002325, 1.000237, -0.001094, -0.001940, 0.000814, -4.855162, -0.651870, 37.724926
2020-05-11 13:20:42.750639, -0.002552, 0.002874, 1.000602, 0.000123, 0.000044, 0.000344, -4.864084, -0.640499, 37.556637
2020-05-11 13:20:42.803434, -0.003606, 0.002142, 1.000419, -0.001062, 0.001076, -0.000111, -4.949622, -0.661896, 37.776482
2020-05-11 13:20:42.856280, -0.002552, 0.002630, 1.000480, 0.000154, -0.000584, 0.000336, -5.018053, -0.489951, 37.981411
2020-05-11 13:20:42.909057, -0.002738, 0.002630, 1.000967, 0.000297, -0.001155, 0.000768, -5.016797, -0.370692, 37.848991
2020-05-11 13:20:42.961803, -0.002986, 0.003240, 1.000115, 0.000139, 0.000360, -0.000882, -5.021392, -0.366766, 37.879616
2020-05-11 13:20:43.014592, -0.003048, 0.002142, 1.000785, 0.000282, 0.000200, -0.000410, -4.952269, -0.388021, 37.808231
2020-05-11 13:20:43.067388, -0.002800, 0.002264, 0.999567, -0.000022, -0.000249, -0.000691, -4.913770, -0.466012, 37.751125
2020-05-11 13:20:43.120448, -0.003234, 0.002203, 1.000115, -0.001793, -0.000093, 0.000513, -4.882971, -0.375936, 37.638615
2020-05-11 13:20:43.173230, -0.002056, 0.002691, 1.001576, -0.000405, -0.000533, 0.000348, -4.953531, -0.364863, 37.757801
2020-05-11 13:20:43.226101, -0.002800, 0.002203, 1.000176, -0.002753, 0.000813, 0.001222, -5.021180, -0.295016, 37.399891
2020-05-11 13:20:43.278848, -0.002304, 0.001775, 1.001515, 0.001324, 0.000786, -0.001033, -5.052898, -0.178151, 37.592972
2020-05-11 13:20:43.331629, -0.002862, 0.002752, 0.999567, 0.001133, 0.000465, -0.001589, -4.904674, -0.255425, 37.523712
2020-05-11 13:20:43.384385, -0.003234, 0.002142, 1.001697, 0.000062, -0.000141, -0.001093, -5.038094, -0.244059, 37.599052
2020-05-11 13:20:43.437242, -0.002738, 0.002203, 1.000298, 0.000945, 0.000306, -0.000171, -5.032830, -0.363040, 37.720341
2020-05-11 13:20:43.490001, -0.003916, 0.001897, 0.999993, 0.000471, 0.000149, 0.000868, -5.045419, -0.348447, 37.741829
2020-05-11 13:20:43.542787, -0.002924, 0.002081, 1.001393, -0.000431, 0.001029, -0.000342, -5.089090, -0.361168, 37.544010
2020-05-11 13:20:43.595598, -0.002242, 0.002935, 1.000906, 0.001503, -0.000776, 0.000555, -5.359227, -0.401839, 37.961048
2020-05-11 13:20:43.648379, -0.003048, 0.002996, 1.001637, 0.000272, -0.000012, 0.000389, -5.452136, -0.397782, 37.771683
2020-05-11 13:20:43.701121, -0.002924, 0.002264, 1.000663, -0.000475, 0.000874, 0.001114, -5.392064, -0.382340, 37.951424
2020-05-11 13:20:43.753898, -0.003606, 0.002813, 0.998898, -0.000017, -0.000041, 0.000339, -5.394405, -0.284602, 37.897640
2020-05-11 13:20:43.806711, -0.003358, 0.002142, 0.999993, -0.000754, -0.000335, 0.000033, -5.429879, -0.261302, 37.831367
2020-05-11 13:20:43.859508, -0.001870, 0.001470, 1.000602, -0.000286, 0.000857, -0.000116, -5.368658, -0.291452, 38.103771
2020-05-11 13:20:43.912272, -0.003358, 0.002691, 1.000785, 0.000314, -0.000943, 0.000921, -5.476481, -0.321671, 38.295544
2020-05-11 13:20:43.965162, -0.003358, 0.001653, 1.000724, 0.000303, 0.000712, -0.001619, -5.277140, -0.358043, 38.088676
2020-05-11 13:20:44.017939, -0.003730, 0.003057, 1.000115, 0.000884, -0.000935, 0.001092, -5.263267, -0.295660, 38.207924
2020-05-11 13:20:44.070764, -0.003606, 0.001409, 1.001880, -0.000917, 0.000720, 0.000317, -5.145768, -0.379926, 38.024391
2020-05-11 13:20:44.123524, -0.001994, 0.002813, 1.000724, 0.000590, -0.000928, -0.000431, -5.046169, -0.319264, 37.799114
2020-05-11 13:20:44.176383, -0.002056, 0.001958, 1.000785, -0.000316, -0.000159, 0.001059, -4.843290, -0.307328, 37.912354
2020-05-11 13:20:44.229185, -0.002490, 0.003790, 1.001211, -0.001043, 0.000880, 0.000138, -4.888187, -0.541730, 38.328362
2020-05-11 13:20:44.282034, -0.003110, 0.002935, 1.001271, -0.001009, -0.000626, 0.000134, -4.991304, -0.643869, 38.149796
2020-05-11 13:20:44.334867, -0.001808, 0.003057, 1.001211, -0.000089, 0.000133, 0.001458, -4.995398, -0.627999, 38.158031
2020-05-11 13:20:44.387702, -0.003048, 0.002508, 1.000663, 0.000504, -0.000609, 0.000671, -5.239473, -0.511624, 38.001911
2020-05-11 13:20:44.440478, -0.002986, 0.002508, 0.999750, -0.000398, 0.000149, -0.001418, -5.350733, -0.485611, 38.225677
2020-05-11 13:20:44.493306, -0.003420, 0.002447, 1.000663, -0.000385, -0.000446, 0.000844, -5.456542, -0.531887, 38.079269
2020-05-11 13:20:44.546157, -0.002924, 0.002874, 1.000358, -0.000667, -0.000432, 0.000373, -5.602788, -0.489623, 38.069649
2020-05-11 13:20:44.598995, -0.002862, 0.002325, 1.001332, -0.000202, 0.000321, 0.000065, -5.585385, -0.309442, 37.913773
2020-05-11 13:20:44.651775, -0.002366, 0.002569, 1.001211, 0.000100, -0.000133, 0.000358, -5.722663, -0.220185, 37.983742
2020-05-11 13:20:44.704617, -0.003792, 0.002813, 1.001637, -0.000051, -0.000571, -0.000097, -5.602885, -0.252460, 37.830517
2020-05-11 13:20:44.757465, -0.003172, 0.002752, 1.002002, 0.000541, -0.000552, 0.001235, -5.719863, -0.278279, 37.873554
2020-05-11 13:20:44.810290, -0.003358, 0.003118, 1.001393, 0.000080, 0.001238, -0.001020, -5.555845, -0.341626, 37.844059
2020-05-11 13:20:44.863065, -0.002738, 0.002569, 1.000663, 0.000077, 0.000606, 0.000047, -5.547831, -0.215439, 37.788506
2020-05-11 13:20:44.916187, -0.002800, 0.002203, 1.001758, -0.000811, 0.000438, 0.000488, -5.636620, -0.254762, 37.851566
2020-05-11 13:20:44.968987, -0.003234, 0.001958, 1.001637, -0.000489, 0.000867, 0.001653, -5.730051, -0.322812, 37.875866
2020-05-11 13:20:45.021857, -0.002738, 0.003179, 1.000176, -0.001358, -0.000048, -0.000616, -5.597595, -0.365055, 37.860439
2020-05-11 13:20:45.074636, -0.003048, 0.003179, 1.001028, 0.000901, -0.000637, -0.000301, -5.659631, -0.313467, 37.865528
2020-05-11 13:20:45.127550, -0.001746, 0.002630, 1.001576, 0.000133, -0.000025, 0.000152, -5.468460, -0.418566, 37.794056
2020-05-11 13:20:45.180321, -0.002738, 0.002264, 0.999993, 0.000867, -0.000320, -0.000886, -5.545123, -0.295288, 37.646809
2020-05-11 13:20:45.233159, -0.002924, 0.003240, 1.000298, -0.000195, -0.000604, 0.000767, -5.472053, -0.318641, 37.502861
2020-05-11 13:20:45.285970, -0.001560, 0.002691, 1.001515, -0.000632, 0.000449, -0.000439, -5.519997, -0.245841, 37.782856
2020-05-11 13:20:45.338799, -0.003730, 0.002325, 1.000906, 0.000423, 0.000434, 0.000313, -5.524753, -0.279083, 37.928402
2020-05-11 13:20:45.391578, -0.003358, 0.003362, 1.001332, -0.000625, 0.000715, 0.000155, -5.511757, -0.220294, 37.951862
2020-05-11 13:20:45.444403, -0.003048, 0.002386, 1.000724, 0.001315, 0.000396, -0.000883, -5.282960, -0.258646, 37.964817
2020-05-11 13:20:45.497177, -0.002862, 0.002813, 1.000054, -0.000500, 0.000088, 0.000327, -5.452723, -0.271030, 37.937408
2020-05-11 13:20:45.550000, -0.003420, 0.001592, 0.999933, 0.000255, -0.000063, -0.002341, -5.370133, -0.268741, 37.889332
2020-05-11 13:20:45.602764, -0.003668, 0.003118, 1.000541, -0.000787, 0.000825, 0.001871, -5.343262, -0.382785, 38.071690
2020-05-11 13:20:45.655644, -0.002614, 0.002691, 0.999628, -0.001351, -0.000531, 0.000775, -5.360964, -0.400836, 38.057774
2020-05-11 13:20:45.708423, -0.002676, 0.002447, 0.999993, 0.000465, -0.000071, -0.000432, -5.436726, -0.214017, 37.834538
2020-05-11 13:20:45.761244, -0.002800, 0.002813, 1.001819, -0.000141, 0.001113, 0.000173, -5.206136, -0.302414, 37.638515
2020-05-11 13:20:45.814001, -0.003544, 0.003424, 1.000176, -0.000284, 0.000190, 0.001201, -5.240063, -0.257255, 37.525280
2020-05-11 13:20:45.866910, -0.002676, 0.002019, 1.000176, 0.000316, -0.001293, -0.000611, -5.334405, -0.330906, 37.513142
2020-05-11 13:20:45.919675, -0.002614, 0.001775, 1.000541, 0.000453, -0.000364, -0.000295, -5.421079, -0.365431, 37.674858
2020-05-11 13:20:45.972500, -0.002614, 0.003240, 1.000906, -0.000152, -0.000647, 0.000453, -5.434418, -0.411348, 37.792610
2020-05-11 13:20:46.025377, -0.001622, 0.002325, 1.001028, -0.000738, -0.000035, 0.000733, -5.523489, -0.393192, 37.860661
2020-05-11 13:20:46.078169, -0.001684, 0.001836, 1.000298, -0.000566, -0.000181, -0.000473, -5.617146, -0.482347, 38.083622
2020-05-11 13:20:46.130908, -0.003048, 0.003362, 1.001150, 0.000487, -0.000471, -0.001786, -5.501672, -0.382905, 38.070225
2020-05-11 13:20:46.183693, -0.003048, 0.002630, 1.000237, 0.000766, 0.000136, 0.000193, -5.431693, -0.455821, 37.876461
2020-05-11 13:20:46.236451, -0.002862, 0.002325, 1.001089, -0.000146, -0.001493, 0.000039, -5.342109, -0.465363, 37.860912
2020-05-11 13:20:46.289310, -0.003172, 0.001897, 1.000298, -0.001469, 0.000181, 0.000481, -5.248042, -0.412009, 37.616032
2020-05-11 13:20:46.342070, -0.002304, 0.001653, 1.000419, 0.000351, -0.000563, 0.000612, -5.295989, -0.466907, 37.559593
2020-05-11 13:20:46.394906, -0.003482, 0.001714, 0.999993, -0.000103, 0.000194, -0.000737, -5.171946, -0.638899, 37.746883
2020-05-11 13:20:46.447629, -0.003110, 0.002752, 0.999811, -0.000691, 0.000925, 0.000321, -5.218311, -0.538640, 37.681709
2020-05-11 13:20:46.500487, -0.003482, 0.001958, 1.001089, 0.000218, -0.001172, 0.000163, -5.177004, -0.543816, 37.559837
2020-05-11 13:20:46.553235, -0.001684, 0.002691, 1.000176, 0.000063, 0.000048, -0.000876, -5.267158, -0.169833, 37.465244
2020-05-11 13:20:46.606120, -0.002366, 0.003362, 0.999689, -0.000529, 0.000932, -0.000404, -5.092881, -0.242672, 37.276253
2020-05-11 13:20:46.659293, -0.002676, 0.002630, 1.000419, -0.001250, -0.000133, 0.001233, -5.255860, -0.172868, 37.209320
2020-05-11 13:20:46.712120, -0.002490, 0.000921, 1.000724, 0.001302, 0.000610, -0.000432, -5.257442, -0.135322, 37.266186
2020-05-11 13:20:46.764927, -0.002800, 0.002264, 1.000298, 0.000668, -0.000739, -0.000417, -5.314709, -0.196767, 37.384315
2020-05-11 13:20:46.817733, -0.001125, 0.002752, 0.999811, -0.000240, 0.000614, 0.000335, -5.427722, -0.264219, 37.350975
2020-05-11 13:20:46.870498, -0.002924, 0.002386, 1.001211, -0.000232, -0.000440, 0.000324, -5.568532, -0.470650, 37.539314
2020-05-11 13:20:46.923293, -0.003420, 0.002081, 1.000419, 0.000514, -0.000130, -0.000278, -5.535581, -0.465029, 37.535992
2020-05-11 13:20:46.976110, -0.003296, 0.003179, 1.000358, -0.000537, 0.000170, -0.001006, -5.447619, -0.430038, 37.684422
2020-05-11 13:20:47.028915, -0.002986, 0.002569, 1.000663, 0.000367, 0.000755, -0.000235, -5.500451, -0.347157, 37.718903
2020-05-11 13:20:47.081674, -0.002118, 0.002325, 1.000298, -0.000974, -0.000599, -0.000079, -5.486715, -0.427222, 37.708717
2020-05-11 13:20:47.134441, -0.003916, 0.002569, 1.001332, -0.000204, 0.000307, 0.000514, -5.358127, -0.448583, 37.880711
2020-05-11 13:20:47.187171, -0.002738, 0.002996, 1.000298, 0.000394, 0.001182, -0.000241, -5.339256, -0.453475, 37.875935
2020-05-11 13:20:47.239958, -0.002986, 0.002325, 1.001271, -0.000358, -0.000481, 0.000062, -5.273760, -0.506178, 37.947659
2020-05-11 13:20:47.292686, -0.002800, 0.002752, 1.000480, -0.000050, -0.000613, 0.000060, -5.372563, -0.414167, 37.763878
2020-05-11 13:20:47.345500, -0.002428, 0.001958, 1.000176, -0.000787, -0.000445, 0.000796, -5.334005, -0.377151, 37.631382
2020-05-11 13:20:47.398247, -0.003234, 0.002081, 0.998837, 0.000273, -0.001168, -0.000559, -5.291959, -0.280452, 37.531197
2020-05-11 13:20:47.451108, -0.002924, 0.002935, 1.000115, -0.000327, -0.000686, 0.000788, -5.006322, -0.434846, 37.546928
2020-05-11 13:20:47.503882, -0.003234, 0.002019, 0.999993, 0.001160, -0.000516, -0.001010, -4.996212, -0.381497, 37.658302
2020-05-11 13:20:47.556704, -0.002366, 0.002874, 1.000602, 0.000826, 0.002011, -0.000386, -4.982525, -0.454694, 38.046673
2020-05-11 13:20:47.609426, -0.003978, 0.002752, 0.999567, -0.000235, -0.000565, 0.000070, -5.105975, -0.452265, 38.026138
2020-05-11 13:20:47.662200, -0.002242, 0.002691, 0.998898, -0.000965, -0.000990, -0.000670, -5.182335, -0.529605, 37.942883
2020-05-11 13:20:47.715058, -0.002428, 0.002691, 1.000176, -0.000637, -0.000661, 0.001419, -5.193023, -0.353624, 37.675797
2020-05-11 13:20:47.767869, -0.002614, 0.002813, 1.000298, 0.000122, -0.000492, 0.000338, -5.279973, -0.304322, 37.924107
2020-05-11 13:20:47.820646, -0.002676, 0.002386, 1.000237, -0.000325, -0.000918, -0.000707, -5.304733, -0.350263, 38.151810
2020-05-11 13:20:47.873448, -0.003358, 0.002325, 0.999628, 0.000129, -0.001330, 0.000055, -5.352541, -0.344324, 38.069569
2020-05-11 13:20:47.926302, -0.002552, 0.002142, 1.000115, 0.000124, 0.000338, 0.000496, -5.284388, -0.339573, 38.172298
2020-05-11 13:20:47.979077, -0.002180, 0.002630, 1.001515, 0.000711, 0.000031, -0.001587, -5.145864, -0.158908, 38.327122
2020-05-11 13:20:48.031875, -0.002738, 0.003729, 0.999507, 0.000835, -0.000708, 0.000237, -5.012646, -0.136351, 38.305702
2020-05-11 13:20:48.084673, -0.003296, 0.001836, 1.000176, -0.000226, 0.000054, 0.000672, -4.939672, -0.002429, 38.189777
2020-05-11 13:20:48.137442, -0.002924, 0.002630, 0.998776, -0.001400, 0.000790, 0.000797, -4.970892, -0.041662, 37.963387
2020-05-11 13:20:48.190223, -0.004474, 0.002142, 0.999202, 0.001156, 0.000321, -0.000705, -5.057468, -0.219419, 37.700916
2020-05-11 13:20:48.242958, -0.002428, 0.002019, 1.000115, -0.000211, 0.000163, 0.000942, -5.149130, -0.203057, 37.827984
2020-05-11 13:20:48.295748, -0.004536, 0.002752, 1.000237, 0.001272, 0.000453, -0.001451, -4.931259, -0.269251, 37.682667
2020-05-11 13:20:48.348484, -0.003110, 0.002264, 0.999141, 0.000197, 0.001028, -0.000665, -4.880162, -0.163638, 37.839531
2020-05-11 13:20:48.401303, -0.002552, 0.002019, 1.000663, 0.001371, 0.000403, -0.000938, -4.906484, -0.066950, 37.909821
2020-05-11 13:20:48.454201, -0.002862, 0.002752, 0.999811, 0.000587, -0.000348, -0.000169, -4.888342, 0.083586, 37.861450
2020-05-11 13:20:48.507019, -0.003234, 0.002325, 0.999872, -0.000761, -0.000042, 0.000428, -5.047429, -0.052134, 37.308475
2020-05-11 13:20:48.559773, -0.002118, 0.002386, 1.000358, -0.000588, 0.000993, 0.000856, -5.001098, -0.130216, 37.255440
2020-05-11 13:20:48.612589, -0.002800, 0.001897, 0.999324, 0.000170, -0.000221, 0.000237, -4.941633, -0.210979, 37.271118
2020-05-11 13:20:48.665372, -0.001808, 0.002142, 0.999933, -0.000426, 0.000229, -0.001542, -4.810061, -0.306082, 37.652664
2020-05-11 13:20:48.718164, -0.003916, 0.001775, 1.000480, 0.000326, -0.000074, -0.000015, -4.816804, -0.308979, 37.748703
2020-05-11 13:20:48.770891, -0.003172, 0.002813, 0.999567, -0.001161, 0.000224, 0.000724, -4.855798, -0.262507, 37.700596
2020-05-11 13:20:48.823679, -0.003544, 0.003240, 0.999689, -0.000237, 0.000807, -0.001072, -4.752593, -0.091156, 37.638866
2020-05-11 13:20:48.876479, -0.002986, 0.002508, 0.999628, 0.000509, -0.000105, -0.001036, -4.877229, -0.161434, 37.473263
2020-05-11 13:20:48.929261, -0.001746, 0.002447, 1.000663, 0.001673, -0.000102, -0.000263, -4.971338, -0.168866, 37.332062
2020-05-11 13:20:48.982022, -0.002862, 0.002569, 1.001271, 0.000289, 0.000935, 0.000631, -4.951426, -0.144318, 37.451546
2020-05-11 13:20:49.034820, -0.002924, 0.003301, 1.000480, 0.001313, 0.000756, 0.000315, -4.879495, -0.179568, 37.343742
2020-05-11 13:20:49.087627, -0.003048, 0.002508, 1.001637, 0.000678, 0.000436, -0.000138, -4.973151, -0.299250, 37.330139
2020-05-11 13:20:49.140404, -0.001994, 0.002569, 1.000663, -0.000673, 0.000569, -0.001167, -4.863276, -0.273020, 37.275673
2020-05-11 13:20:49.193276, -0.003730, 0.003546, 1.000785, 0.000088, 0.000402, 0.000939, -4.836975, -0.014183, 37.621441
2020-05-11 13:20:49.246066, -0.003234, 0.001836, 0.999263, 0.001266, 0.000684, 0.000760, -4.972735, -0.124251, 37.715008
2020-05-11 13:20:49.298960, -0.001994, 0.001958, 0.999141, -0.000400, -0.001110, 0.001030, -5.025343, -0.151317, 37.621342
2020-05-11 13:20:49.351797, -0.002862, 0.001714, 1.001028, -0.000535, 0.000403, 0.000109, -5.022629, -0.026599, 37.636478
2020-05-11 13:20:49.404725, -0.001994, 0.002142, 1.000176, -0.000369, -0.000053, 0.000106, -5.110058, -0.018307, 37.869408
2020-05-11 13:20:49.457572, -0.003110, 0.002386, 1.001089, 0.000529, -0.000199, 0.000250, -5.101601, 0.067611, 37.800068
2020-05-11 13:20:49.510290, -0.002614, 0.001836, 0.999993, 0.000068, 0.000546, 0.000537, -5.184436, 0.270519, 37.942169
2020-05-11 13:20:49.563188, -0.002676, 0.002264, 1.001393, 0.000361, 0.000675, 0.000962, -5.082704, 0.042523, 37.986118
2020-05-11 13:20:49.615941, -0.001994, 0.002447, 1.000054, 0.000940, -0.000086, 0.000044, -5.158117, 0.030893, 38.006752
2020-05-11 13:20:49.668696, -0.003048, 0.002508, 1.000419, -0.000125, -0.000526, 0.000928, -5.044848, 0.094773, 38.023258
2020-05-11 13:20:49.721702, -0.002676, 0.002935, 1.000663, 0.000913, -0.000065, 0.000750, -5.172634, 0.030001, 37.870846
2020-05-11 13:20:49.774485, -0.002676, 0.003118, 1.000541, 0.000587, 0.000232, -0.000309, -5.078862, -0.034014, 37.868042
2020-05-11 13:20:49.827444, -0.003482, 0.003668, 0.999872, 0.000420, -0.000218, -0.000446, -4.975844, -0.134017, 37.903572
2020-05-11 13:20:49.880229, -0.003296, 0.001653, 0.999872, -0.000628, -0.000359, 0.000455, -5.067030, -0.214019, 37.690838
2020-05-11 13:20:49.932979, -0.002304, 0.001897, 1.001028, -0.000311, -0.000347, -0.000151, -5.117579, -0.247526, 37.488689
2020-05-11 13:20:49.985792, -0.002304, 0.002447, 1.000480, -0.001630, 0.001289, -0.001179, -4.906017, -0.292629, 37.419949
2020-05-11 13:20:50.038505, -0.003172, 0.002447, 0.999324, 0.000934, 0.000360, -0.001140, -4.927168, -0.182340, 37.629356
2020-05-11 13:20:50.091281, -0.002180, 0.002325, 1.000541, 0.000460, 0.001677, -0.000807, -4.882490, -0.124603, 37.724247
2020-05-11 13:20:50.144139, -0.002986, 0.002325, 1.001393, -0.000146, -0.000889, 0.000106, -4.953146, -0.121105, 37.843742
2020-05-11 13:20:50.197558, -0.002428, 0.002874, 1.000176, 0.000007, 0.000469, -0.001226, -5.121672, -0.160998, 37.857983
2020-05-11 13:20:50.250439, -0.002490, 0.002752, 0.999811, 0.000302, 0.000306, -0.000447, -5.200493, -0.101430, 38.104725
2020-05-11 13:20:50.303228, -0.003668, 0.002874, 1.001089, -0.000299, -0.000295, -0.000285, -5.285949, -0.328221, 38.107449
2020-05-11 13:20:50.355993, -0.002986, 0.002630, 1.001637, 0.000007, -0.000137, -0.000571, -5.152714, -0.326691, 38.071854
2020-05-11 13:20:50.408938, -0.002366, 0.002447, 0.999993, 0.000006, -0.000133, -0.000847, -4.950926, -0.343763, 38.046284
2020-05-11 13:20:50.461657, -0.002924, 0.003118, 1.000724, -0.000141, 0.000019, 0.000215, -5.052695, -0.314729, 38.142048
2020-05-11 13:20:50.514445, -0.002366, 0.001958, 0.999811, 0.001635, 0.000609, -0.000973, -5.106111, -0.389083, 38.128590
2020-05-11 13:20:50.567239, -0.003792, 0.003118, 1.001271, 0.000252, -0.000149, -0.000055, -5.221644, -0.521751, 38.045185
2020-05-11 13:20:50.620021, -0.003234, 0.002386, 0.999993, 0.000834, 0.000299, -0.000939, -5.213270, -0.402230, 37.984272
2020-05-11 13:20:50.672891, -0.003234, 0.002508, 1.000298, 0.000954, 0.000584, 0.000864, -5.324171, -0.337108, 38.106968
2020-05-11 13:20:50.725680, -0.002490, 0.002019, 0.999811, -0.000259, -0.000174, 0.000097, -5.076891, -0.400887, 37.943626
2020-05-11 13:20:50.778548, -0.002614, 0.002264, 1.000967, -0.001727, -0.000168, 0.000684, -5.136668, -0.403120, 37.827480
2020-05-11 13:20:50.831417, -0.003296, 0.003057, 0.999811, -0.000045, 0.000576, 0.000071, -5.218089, -0.392708, 37.757809
2020-05-11 13:20:50.884165, -0.002428, 0.002935, 1.000298, -0.000191, -0.000772, -0.000227, -5.199226, -0.170922, 37.934513
2020-05-11 13:20:50.936961, -0.002862, 0.003607, 1.000663, 0.000110, -0.001189, 0.000962, -5.077736, -0.261839, 38.038105
2020-05-11 13:20:50.989852, -0.001622, 0.003240, 1.000724, -0.000484, -0.000559, 0.001077, -5.064543, -0.346771, 37.958267
2020-05-11 13:20:51.042813, -0.003420, 0.002630, 1.001211, 0.000418, 0.000345, -0.001763, -5.031590, -0.512296, 37.969940
2020-05-11 13:20:51.095676, -0.003606, 0.002325, 1.000602, -0.000334, -0.001142, -0.000671, -5.156426, -0.522741, 38.095501
2020-05-11 13:20:51.148458, -0.003172, 0.002813, 1.000602, 0.000120, 0.000077, 0.000384, -5.172296, -0.634776, 37.992561
2020-05-11 13:20:51.201189, -0.001994, 0.002081, 0.999689, -0.000327, -0.000959, 0.000372, -5.078592, -0.590232, 37.785275
2020-05-11 13:20:51.253954, -0.002800, 0.002508, 0.999872, 0.000717, 0.000106, -0.000231, -4.925228, -0.658275, 37.787964
2020-05-11 13:20:51.306747, -0.003172, 0.002081, 1.001758, 0.000546, -0.000340, 0.000515, -4.942537, -0.560240, 37.819172
2020-05-11 13:20:51.359594, -0.003482, 0.002203, 0.999872, -0.000653, -0.000329, 0.000645, -4.956385, -0.536701, 37.626225
2020-05-11 13:20:51.412323, -0.002118, 0.002935, 1.001454, -0.001075, 0.000125, -0.000410, -4.939463, -0.523969, 37.713024
2020-05-11 13:20:51.465104, -0.002862, 0.002325, 1.000480, -0.000153, -0.000617, 0.000932, -4.914725, -0.464993, 37.477383
2020-05-11 13:20:51.517972, -0.002552, 0.003240, 1.000967, -0.001477, -0.000449, 0.001197, -5.040535, -0.521491, 37.541653
2020-05-11 13:20:51.570922, -0.004909, 0.003118, 0.999933, 0.000197, -0.000139, 0.000714, -4.922783, -0.450813, 37.369343
2020-05-11 13:20:51.623950, -0.003296, 0.002325, 1.000785, -0.000105, 0.000456, -0.000491, -4.940581, -0.473554, 37.382580
2020-05-11 13:20:51.676673, -0.003110, 0.002813, 1.000785, 0.000046, 0.001622, 0.000559, -4.966020, -0.449056, 37.701157
2020-05-11 13:20:51.729433, -0.002986, 0.002081, 1.000298, 0.000340, -0.000204, -0.000346, -4.980771, -0.417260, 37.956017
2020-05-11 13:20:51.782166, -0.002490, 0.003790, 0.999993, 0.000771, 0.000541, 0.000404, -5.037371, -0.221057, 37.854824
2020-05-11 13:20:51.834954, -0.003172, 0.002508, 1.000724, 0.002665, 0.001261, 0.000095, -5.015451, -0.118984, 37.707047
2020-05-11 13:20:51.887899, -0.003110, 0.002203, 0.998898, -0.000524, 0.000334, -0.000055, -4.913916, -0.134906, 37.800926
2020-05-11 13:20:51.940569, -0.002304, 0.002935, 0.999993, 0.001708, -0.000120, -0.000054, -5.179887, 0.047518, 38.091038
2020-05-11 13:20:51.994020, -0.002924, 0.002630, 1.000419, 0.001060, 0.000769, -0.000347, -5.135065, -0.080989, 37.660667
2020-05-11 13:20:52.047170, -0.003358, 0.003362, 1.001819, 0.000877, -0.001618, 0.000107, -5.160807, -0.025226, 37.525570
2020-05-11 13:20:52.100052, -0.002366, 0.001775, 1.000115, 0.000405, -0.000531, 0.000251, -5.030200, -0.078196, 37.629597
2020-05-11 13:20:52.152776, -0.002490, 0.001958, 1.000602, -0.000051, 0.000520, 0.000243, -5.082515, -0.096176, 37.628555
2020-05-11 13:20:52.205663, -0.002490, 0.002386, 1.000358, 0.000541, 0.000355, -0.000356, -4.950767, -0.073969, 37.694550
2020-05-11 13:20:52.258404, -0.002862, 0.002447, 1.001454, 0.000228, -0.000395, -0.000048, -5.097368, -0.226968, 37.648556
2020-05-11 13:20:52.311240, -0.003358, 0.002874, 1.001028, 0.000220, 0.000356, -0.000047, -5.225850, -0.105416, 37.533314
2020-05-11 13:20:52.364147, -0.002552, 0.002019, 1.000298, 0.000360, 0.000345, 0.000693, -5.115835, -0.014274, 37.653225
2020-05-11 13:20:52.417050, -0.003048, 0.003424, 1.000785, 0.001086, 0.000333, -0.000068, -4.988623, -0.069434, 37.760773
2020-05-11 13:20:52.469855, -0.001932, 0.000860, 0.999811, 0.000755, -0.000416, 0.000082, -4.965253, -0.192847, 37.942696
2020-05-11 13:20:52.522728, -0.003358, 0.002569, 0.999628, -0.000599, 0.000336, 0.000374, -4.946557, -0.267181, 38.207359
2020-05-11 13:20:52.575660, -0.003358, 0.002935, 1.001028, -0.001317, 0.000915, -0.000081, -4.892401, -0.326649, 38.154690
2020-05-11 13:20:52.628687, -0.002304, 0.002508, 1.000358, 0.000498, 0.000147, -0.001850, -4.994675, -0.337631, 38.222961
2020-05-11 13:20:52.681693, -0.002676, 0.002386, 1.002123, 0.000334, -0.000154, 0.000721, -4.835695, -0.297626, 38.219467
2020-05-11 13:20:52.734597, -0.002676, 0.002447, 1.000967, -0.000268, 0.000737, -0.000779, -4.915711, -0.131449, 37.879631
2020-05-11 13:20:52.787489, -0.003048, 0.003179, 1.001393, 0.000037, -0.000321, -0.000458, -4.946124, 0.074678, 38.043591
2020-05-11 13:20:52.840347, -0.003358, 0.003729, 1.000541, -0.000998, -0.000753, 0.000296, -4.724054, -0.083656, 37.919075
2020-05-11 13:20:52.893144, -0.002676, 0.001531, 0.999872, -0.000965, -0.000285, -0.000010, -4.719998, -0.021260, 37.682903
2020-05-11 13:20:52.946109, -0.002676, 0.003240, 1.000419, -0.002114, 0.000758, 0.000729, -4.660753, -0.190900, 37.889114
2020-05-11 13:20:52.998968, -0.001870, 0.001104, 1.000845, -0.000714, -0.000596, -0.000329, -4.770157, -0.393698, 37.754814
2020-05-11 13:20:53.051869, -0.002676, 0.002325, 1.000785, 0.000786, -0.000576, -0.000465, -4.829681, -0.446159, 37.414932
2020-05-11 13:20:53.104774, -0.002614, 0.002752, 1.000967, -0.000422, 0.000034, 0.000436, -5.000500, -0.475930, 37.532368
2020-05-11 13:20:53.157646, -0.002862, 0.002203, 1.000663, -0.000850, -0.000115, -0.000612, -4.969154, -0.530241, 37.713482
2020-05-11 13:20:53.210661, -0.002552, 0.002874, 1.000663, -0.000084, 0.000184, -0.000592, -4.921679, -0.317541, 37.739246
2020-05-11 13:20:53.263499, -0.002614, 0.002813, 1.000906, -0.000376, 0.000473, -0.000867, -5.034898, -0.403530, 37.812157
2020-05-11 13:20:53.316253, -0.003172, 0.002813, 1.000906, -0.000069, -0.000133, -0.000838, -5.007873, -0.191776, 37.931503
2020-05-11 13:20:53.369072, -0.002490, 0.003546, 1.001515, -0.000362, 0.001052, -0.001253, -4.902253, -0.266325, 37.899136
2020-05-11 13:20:53.421868, -0.002986, 0.003424, 1.000237, -0.000497, -0.000754, 0.000412, -4.879357, -0.295471, 37.815132
2020-05-11 13:20:53.474689, -0.003110, 0.002691, 1.000906, 0.000553, 0.000452, 0.000694, -4.883440, -0.330985, 37.765362
2020-05-11 13:20:53.527958, -0.003048, 0.002081, 1.000480, 0.000387, 0.000584, -0.001691, -4.976307, -0.310605, 37.618042
2020-05-11 13:20:53.581093, -0.002738, 0.003057, 0.999689, 0.000374, -0.000764, -0.000011, -4.977800, -0.513858, 37.607689
2020-05-11 13:20:53.633927, -0.003110, 0.002019, 1.000906, 0.000509, -0.000886, 0.000285, -5.012595, -0.499595, 37.613934
2020-05-11 13:20:53.686933, -0.002614, 0.002019, 1.000298, 0.001525, 0.000472, -0.000611, -5.040431, -0.597963, 37.462032
2020-05-11 13:20:53.741793, -0.003048, 0.002325, 1.000541, 0.001525, 0.000625, 0.001222, -5.107500, -0.414410, 37.430584
2020-05-11 13:20:53.794543, -0.001994, 0.002813, 1.000906, -0.000460, 0.000319, -0.000458, -5.105155, -0.389543, 37.414143
2020-05-11 13:20:53.847369, -0.002986, 0.002752, 1.001028, -0.000155, -0.000139, -0.000916, -4.957678, -0.314761, 37.476532
2020-05-11 13:20:53.900203, -0.002490, 0.002142, 1.002002, -0.001071, -0.001055, -0.001221, -4.974098, -0.529380, 37.636852
2020-05-11 13:20:53.952971, -0.002428, 0.002630, 1.001028, -0.000307, 0.000320, 0.000611, -4.836033, -0.475420, 37.654697
2020-05-11 13:20:54.005806, -0.002800, 0.003301, 1.002489, 0.000304, -0.001055, 0.000611, -4.775981, -0.517635, 37.410385
2020-05-11 13:20:54.058623, -0.002862, 0.002813, 1.002002, 0.000914, -0.000138, -0.000458, -4.879139, -0.466025, 37.467712
2020-05-11 13:20:54.111454, -0.002614, 0.002386, 1.001150, 0.000304, 0.000320, 0.000153, -4.776866, -0.595502, 37.484520
2020-05-11 13:20:54.164257, -0.002552, 0.003790, 0.999993, -0.000155, -0.000902, -0.001221, -4.745448, -0.601503, 37.593849
2020-05-11 13:20:54.217091, -0.002676, 0.002142, 1.000845, -0.000613, -0.000902, 0.001069, -4.927514, -0.661194, 37.352989
2020-05-11 13:20:54.270072, -0.002614, 0.002142, 0.999993, 0.000914, -0.000138, 0.000000, -5.084366, -0.690649, 37.506058
2020-05-11 13:20:54.322892, -0.003606, 0.002386, 0.999689, 0.000151, -0.000138, 0.000458, -5.142647, -0.683720, 37.311810
2020-05-11 13:20:54.375666, -0.002242, 0.002813, 1.001271, 0.000914, 0.000167, -0.000458, -5.284472, -0.708670, 37.435341
2020-05-11 13:20:54.428485, -0.001994, 0.003057, 1.000906, 0.000303, -0.000902, 0.000611, -5.173933, -0.807915, 37.243614
2020-05-11 13:20:54.481254, -0.003482, 0.002813, 1.001758, -0.000613, 0.000778, -0.000458, -5.225501, -0.728742, 37.293621
2020-05-11 13:20:54.534083, -0.004040, 0.002264, 1.001637, -0.001224, -0.000138, -0.000152, -5.199556, -0.580021, 37.606747
2020-05-11 13:20:54.587042, -0.003482, 0.002752, 1.000419, -0.000002, 0.000320, -0.000305, -5.229199, -0.558625, 37.691631
2020-05-11 13:20:54.639871, -0.003234, 0.001653, 1.000602, -0.000918, -0.000596, 0.000917, -5.191315, -0.590298, 37.530003
2020-05-11 13:20:54.692792, -0.003110, 0.002325, 1.000967, -0.001987, 0.000015, 0.000916, -5.273007, -0.633933, 37.482056
2020-05-11 13:20:54.745549, -0.003110, 0.002142, 1.000480, 0.000762, 0.000320, 0.001069, -5.142361, -0.711532, 37.150238
2020-05-11 13:20:54.798343, -0.002862, 0.001897, 1.001515, 0.000762, -0.001360, 0.000305, -5.155443, -0.682130, 37.335140
2020-05-11 13:20:54.851159, -0.002180, 0.002447, 1.000358, -0.001070, -0.000596, -0.000305, -5.042709, -0.664707, 37.366840
2020-05-11 13:20:54.904010, -0.002738, 0.002996, 1.000298, -0.002292, -0.000443, 0.001069, -5.081322, -0.547089, 37.703094
2020-05-11 13:20:54.956849, -0.002242, 0.002569, 1.000115, -0.000306, -0.000138, 0.001374, -5.117813, -0.349316, 37.652489
2020-05-11 13:20:55.009749, -0.003544, 0.002081, 1.000541, 0.000152, 0.000168, 0.000610, -5.315005, -0.380159, 37.489971
2020-05-11 13:20:55.062572, -0.003854, 0.002447, 1.000724, -0.000612, -0.001207, 0.000763, -5.327158, -0.423131, 37.420975
2020-05-11 13:20:55.115412, -0.002304, 0.002203, 1.000663, -0.000001, -0.001054, -0.000459, -5.129682, -0.244050, 37.583691
2020-05-11 13:20:55.168475, -0.002924, 0.002996, 1.002063, -0.000459, 0.000168, -0.000001, -5.223700, -0.332539, 37.629604
2020-05-11 13:20:55.221181, -0.002800, 0.002386, 1.000602, 0.000610, 0.001237, -0.000611, -5.214915, -0.525306, 37.808704
2020-05-11 13:20:55.273994, -0.003544, 0.002813, 1.001393, 0.000457, 0.000626, 0.001221, -5.331087, -0.551445, 37.771843
2020-05-11 13:20:55.326775, -0.003420, 0.002935, 1.001515, 0.000152, 0.000168, 0.000610, -5.502424, -0.480875, 37.536060
2020-05-11 13:20:55.379591, -0.002862, 0.000921, 1.000419, -0.000001, 0.000015, -0.000764, -5.286694, -0.339036, 37.443317
2020-05-11 13:20:55.432368, -0.002738, 0.002447, 0.999507, -0.000306, -0.000596, 0.000457, -5.304510, -0.207268, 37.290672
2020-05-11 13:20:55.485639, -0.002924, 0.001836, 1.000906, 0.001221, -0.000748, -0.000612, -5.262763, -0.175040, 37.290588
2020-05-11 13:20:55.538589, -0.001994, 0.002813, 1.001028, -0.000459, 0.000168, 0.000610, -5.324565, -0.301726, 37.429989
2020-05-11 13:20:55.591470, -0.003358, 0.002447, 0.999811, -0.000306, -0.000137, 0.001221, -5.245207, -0.403075, 37.556034
2020-05-11 13:20:55.644258, -0.002924, 0.001958, 1.000419, 0.000915, -0.001054, -0.000459, -5.198520, -0.362179, 37.543556
2020-05-11 13:20:55.697127, -0.003172, 0.003485, 0.999933, -0.000765, 0.000932, 0.000457, -5.172371, -0.286770, 37.240116
2020-05-11 13:20:55.749871, -0.003234, 0.002447, 1.001150, -0.000154, 0.000321, 0.000457, -5.280252, -0.159357, 37.221088
2020-05-11 13:20:55.802719, -0.002552, 0.002142, 1.000906, 0.000762, -0.000901, -0.000917, -5.232156, -0.252587, 37.115795
2020-05-11 13:20:55.855495, -0.003420, 0.002203, 1.001028, -0.000612, -0.000290, 0.001221, -5.283280, -0.138109, 37.104198
2020-05-11 13:20:55.908320, -0.002862, 0.002019, 1.001637, -0.001223, -0.000901, 0.000762, -5.245779, -0.119713, 37.086205
2020-05-11 13:20:55.961102, -0.001932, 0.002508, 1.001880, -0.000154, -0.000748, 0.000151, -5.322178, -0.044007, 37.129921
2020-05-11 13:20:56.013902, -0.002490, 0.002081, 1.000176, -0.000154, -0.000748, 0.000762, -5.500897, -0.148110, 37.083538
2020-05-11 13:20:56.066731, -0.002676, 0.002752, 1.001697, -0.001070, -0.000748, 0.000762, -5.554273, -0.243590, 37.203331
2020-05-11 13:20:56.119507, -0.001932, 0.001836, 1.001332, -0.000917, 0.000474, -0.000307, -5.720173, -0.362665, 37.217812
2020-05-11 13:20:56.172414, -0.003172, 0.002508, 1.000419, -0.000611, -0.000900, 0.000457, -5.628893, -0.329851, 37.409538
2020-05-11 13:20:56.225273, -0.003544, 0.001287, 1.000967, -0.001680, 0.000169, 0.001373, -5.460669, -0.462168, 37.353722
2020-05-11 13:20:56.278309, -0.001932, 0.003301, 1.002610, 0.000305, -0.000595, 0.000456, -5.393290, -0.482638, 37.152168
2020-05-11 13:20:56.331157, -0.002552, 0.003546, 1.000967, -0.000000, -0.000289, -0.000307, -5.361787, -0.450224, 37.104240
2020-05-11 13:20:56.383907, -0.003234, 0.002874, 1.001150, -0.000916, -0.001663, 0.000456, -5.482184, -0.442590, 37.185028
2020-05-11 13:20:56.436754, -0.003048, 0.003668, 1.001089, -0.000916, 0.000474, -0.001071, -5.500103, -0.582853, 37.139248
2020-05-11 13:20:56.489460, -0.002428, 0.002386, 1.002184, 0.000916, 0.000322, -0.000154, -5.525637, -0.579187, 37.306011
2020-05-11 13:20:56.542376, -0.001188, 0.003240, 1.000663, 0.000611, 0.000169, 0.001067, -5.551665, -0.545760, 37.323200
2020-05-11 13:20:56.595202, -0.002800, 0.002019, 1.001576, -0.001374, -0.000442, 0.000456, -5.650887, -0.488524, 37.409588
2020-05-11 13:20:56.647929, -0.002490, 0.002508, 1.000663, -0.000916, 0.000169, -0.000307, -5.467064, -0.424439, 37.801212
2020-05-11 13:20:56.700816, -0.001684, 0.002325, 1.000541, 0.000764, -0.000747, 0.000609, -5.493606, -0.598826, 38.001194
2020-05-11 13:20:56.753548, -0.003048, 0.002325, 1.001515, -0.001374, -0.000442, 0.000456, -5.414040, -0.530977, 37.745689
2020-05-11 13:20:56.806329, -0.002800, 0.002935, 1.000785, -0.000305, 0.000322, -0.000460, -5.372787, -0.641365, 37.703999
2020-05-11 13:20:56.859046, -0.002242, 0.002691, 1.002123, 0.000306, -0.000594, 0.000762, -5.306184, -0.577206, 37.760715
2020-05-11 13:20:56.912112, -0.002118, 0.002142, 1.001332, 0.000153, -0.000747, 0.000914, -5.168902, -0.531977, 37.928120
2020-05-11 13:20:56.964916, -0.002800, 0.002874, 1.001211, -0.000916, 0.000017, -0.000460, -5.126276, -0.514091, 37.893524
2020-05-11 13:20:57.017658, -0.003234, 0.002081, 1.000663, -0.000458, 0.000322, 0.000303, -5.299376, -0.505881, 37.758343
2020-05-11 13:20:57.070426, -0.003110, 0.002935, 1.001880, -0.000152, 0.000322, -0.000308, -5.303455, -0.566399, 37.769325
2020-05-11 13:20:57.123140, -0.002924, 0.002752, 1.002184, -0.001832, -0.000136, -0.000002, -5.217119, -0.376961, 37.879803
2020-05-11 13:20:57.175906, -0.002614, 0.003301, 1.001637, 0.000459, -0.001052, 0.001067, -5.148050, -0.371781, 37.875210
2020-05-11 13:20:57.228765, -0.002800, 0.002630, 1.002793, -0.001221, -0.000747, 0.000761, -5.115195, -0.483515, 37.915119
2020-05-11 13:20:57.303838, -0.002366, 0.002447, 1.001089, -0.000152, -0.000136, 0.001524, -5.223311, -0.444827, 38.080700
2020-05-11 13:20:57.356752, -0.002366, 0.002508, 1.000967, 0.000154, -0.000441, 0.000455, -5.169804, -0.480963, 37.998154
2020-05-11 13:20:57.409495, -0.002738, 0.001470, 1.000724, 0.001375, 0.000628, -0.000003, -5.065398, -0.406193, 37.772312
2020-05-11 13:20:57.462198, -0.002614, 0.003301, 1.002002, -0.001984, -0.000136, 0.000913, -5.155473, -0.425661, 37.626507
2020-05-11 13:20:57.515139, -0.002490, 0.002569, 1.001941, 0.000001, -0.000136, 0.000608, -5.182734, -0.490026, 37.533108
2020-05-11 13:20:57.567981, -0.002676, 0.002508, 1.001454, -0.001220, -0.001357, 0.001524, -5.221342, -0.413443, 37.589138
2020-05-11 13:20:57.620807, -0.002924, 0.003301, 1.002428, -0.000151, 0.000017, 0.000149, -5.269028, -0.602227, 37.430573
2020-05-11 13:20:57.673631, -0.002614, 0.002325, 1.001028, 0.000001, 0.000475, -0.001683, -5.301577, -0.545895, 37.469337
2020-05-11 13:20:57.726438, -0.002366, 0.002508, 1.001819, -0.001067, -0.001663, 0.000608, -5.159616, -0.421546, 37.256283
2020-05-11 13:20:57.779202, -0.003172, 0.002203, 1.001515, -0.000609, -0.000441, -0.000767, -5.074048, -0.315968, 37.417072
2020-05-11 13:20:57.831962, -0.002924, 0.003240, 1.001941, -0.000456, -0.000135, 0.000455, -5.016793, -0.194912, 37.702602
2020-05-11 13:20:57.884718, -0.003420, 0.002447, 1.000419, 0.000002, 0.000170, 0.000913, -5.133389, -0.207846, 37.559116
2020-05-11 13:20:57.937627, -0.002552, 0.002813, 1.000663, 0.001223, 0.001544, 0.000455, -5.198666, -0.266984, 37.607037
2020-05-11 13:20:57.990361, -0.002118, 0.001897, 1.001697, 0.000002, 0.001239, -0.000614, -5.150087, -0.265503, 37.500099
2020-05-11 13:20:58.043155, -0.002242, 0.002264, 1.001211, -0.001525, -0.000136, -0.000309, -5.340825, -0.343603, 37.391304
2020-05-11 13:20:58.095926, -0.003358, 0.002569, 1.000419, 0.000307, 0.000322, -0.000767, -5.375815, -0.485367, 37.545425
2020-05-11 13:20:58.148756, -0.002056, 0.002142, 1.000358, -0.000151, -0.000288, 0.000455, -5.403807, -0.604877, 37.546692
2020-05-11 13:20:58.201654, -0.002366, 0.002813, 1.000480, 0.000154, 0.000780, 0.000150, -5.555000, -0.529719, 37.614532
2020-05-11 13:20:58.254464, -0.003296, 0.002630, 1.002549, -0.001220, 0.000322, 0.000455, -5.485555, -0.378111, 37.567112
2020-05-11 13:20:58.308139, -0.002366, 0.002264, 1.002367, -0.000151, -0.000289, -0.000767, -5.390799, -0.305615, 37.581474
2020-05-11 13:20:58.360925, -0.002552, 0.003485, 1.001758, 0.000918, 0.000475, -0.001530, -5.393394, -0.333001, 37.659790
2020-05-11 13:20:58.413634, -0.002986, 0.002081, 1.001089, -0.000151, 0.000169, -0.001377, -5.451470, -0.165848, 37.562641
2020-05-11 13:20:58.466483, -0.002738, 0.002691, 1.001393, -0.000914, 0.000475, 0.000303, -5.335531, -0.111409, 37.688309
2020-05-11 13:20:58.519197, -0.003606, 0.003485, 1.001454, -0.000609, 0.000627, 0.000761, -5.405180, -0.098352, 37.716202
2020-05-11 13:20:58.572019, -0.003482, 0.002264, 1.000785, -0.000456, -0.000136, 0.000608, -5.449698, -0.008623, 37.825684
2020-05-11 13:20:58.624725, -0.002180, 0.002874, 1.000602, 0.001224, -0.000747, -0.001072, -5.384514, -0.162494, 37.956852
2020-05-11 13:20:58.677518, -0.002862, 0.001897, 1.000298, 0.000002, 0.000169, -0.001682, -5.371566, -0.218504, 38.024014
2020-05-11 13:20:58.730219, -0.003172, 0.003607, 1.000845, 0.000155, 0.000475, 0.000914, -5.378007, -0.226720, 38.008011
2020-05-11 13:20:58.783236, -0.002552, 0.001348, 1.001880, -0.000914, -0.000900, 0.000150, -5.103161, -0.221094, 38.053318
2020-05-11 13:20:58.836130, -0.002986, 0.003179, 1.000785, 0.000002, 0.000780, -0.002293, -4.480083, -0.259286, 37.897800
2020-05-11 13:20:58.889052, -0.002800, 0.002630, 1.000906, 0.001529, 0.000933, 0.000761, -4.536022, -0.320333, 37.909946
2020-05-11 13:20:58.941768, -0.002738, 0.002813, 1.001150, 0.000460, -0.000594, -0.001529, -4.535972, -0.174010, 38.091087
2020-05-11 13:20:58.994515, -0.002242, 0.003240, 1.000906, 0.000002, 0.000017, 0.000303, -4.608732, -0.050852, 37.991936
2020-05-11 13:20:59.047757, -0.002924, 0.002386, 1.001697, 0.000918, -0.000594, -0.001376, -4.734140, -0.123092, 37.877750
2020-05-11 13:20:59.100612, -0.003172, 0.001958, 1.000845, 0.000307, 0.000475, -0.000307, -4.890467, -0.223576, 37.728291
2020-05-11 13:20:59.153456, -0.004102, 0.002569, 1.000967, 0.001223, 0.000169, -0.001529, -4.847528, -0.151492, 37.440205
2020-05-11 13:20:59.206422, -0.002552, 0.002630, 1.000541, -0.001067, -0.000442, 0.001373, -4.818778, -0.252394, 37.654278
2020-05-11 13:20:59.259241, -0.002552, 0.002813, 1.000845, -0.000762, -0.000594, -0.000155, -4.890977, -0.192844, 37.691883
2020-05-11 13:20:59.312077, -0.002986, 0.002935, 1.000602, -0.000762, -0.000594, -0.000002, -5.055136, -0.169599, 37.797512
2020-05-11 13:20:59.364852, -0.002614, 0.002935, 1.000724, -0.001372, 0.000322, -0.000613, -4.962463, -0.151003, 37.951748
2020-05-11 13:20:59.417619, -0.002986, 0.002447, 1.001637, 0.000460, -0.000594, -0.000765, -5.117926, -0.130027, 37.857224
2020-05-11 13:20:59.470323, -0.003172, 0.002447, 1.001211, 0.000002, -0.001205, -0.000154, -5.253495, -0.247420, 37.804848
2020-05-11 13:20:59.523164, -0.003606, 0.002508, 1.000663, 0.000613, -0.000441, -0.000154, -5.311551, -0.335235, 37.855923
2020-05-11 13:20:59.575943, -0.003172, 0.002081, 1.001271, 0.000460, -0.000136, -0.000765, -5.251595, -0.405487, 37.934555
2020-05-11 13:20:59.628923, -0.002676, 0.002630, 0.999081, 0.000307, -0.000899, -0.000001, -5.030031, -0.534875, 38.450722
2020-05-11 13:20:59.681645, -0.002242, 0.002935, 1.000602, 0.000612, -0.000746, -0.000001, -5.082380, -0.473717, 38.494652
2020-05-11 13:20:59.734535, -0.002180, 0.002752, 0.999993, -0.001983, -0.001509, -0.000001, -5.129858, -0.497977, 38.419388
2020-05-11 13:20:59.787453, -0.002800, 0.003057, 1.001576, -0.000151, -0.000440, 0.000762, -5.235042, -0.553977, 38.109303
2020-05-11 13:20:59.840231, -0.003110, 0.002691, 1.000237, 0.000613, 0.000170, -0.001070, -5.335988, -0.458505, 37.913532
2020-05-11 13:20:59.892939, -0.003978, 0.002386, 0.999446, 0.000307, 0.000628, -0.000154, -5.287945, -0.491906, 37.893475
2020-05-11 13:20:59.945749, -0.003296, 0.003179, 1.000480, -0.000456, -0.000135, -0.000459, -5.479111, -0.469836, 37.941353
2020-05-11 13:20:59.998478, -0.002180, 0.001348, 0.999446, -0.000151, 0.000170, 0.000610, -5.447243, -0.421686, 38.090065
2020-05-11 13:21:00.053353, -0.002676, 0.002264, 0.999933, -0.000151, -0.000746, -0.000459, -5.141749, -0.468550, 38.025986
2020-05-11 13:21:00.106139, -0.003110, 0.003057, 1.000906, 0.000155, -0.000593, -0.000001, -5.300554, -0.390163, 37.812012
2020-05-11 13:21:00.158965, -0.003234, 0.002569, 1.000298, 0.000155, 0.000323, 0.000304, -5.242798, -0.327454, 37.809353
2020-05-11 13:21:00.211691, -0.003172, 0.002264, 0.999507, -0.000456, -0.000746, 0.000457, -5.370193, -0.356571, 37.699722
2020-05-11 13:21:00.264623, -0.002428, 0.002508, 1.000176, 0.000460, 0.000018, -0.002139, -5.276109, -0.331075, 37.527760
2020-05-11 13:21:00.317366, -0.002242, 0.002264, 1.000054, 0.000765, -0.001356, -0.000764, -5.122442, -0.414357, 37.654591
2020-05-11 13:21:00.370295, -0.002428, 0.002386, 0.999872, 0.000002, -0.000440, -0.000154, -5.234709, -0.328513, 37.692135
2020-05-11 13:21:00.423001, -0.003048, 0.002081, 0.998898, -0.000151, 0.000171, -0.000306, -5.240522, -0.150059, 36.850513
2020-05-11 13:21:00.475903, -0.002242, 0.002630, 1.000602, 0.000460, -0.000135, 0.000763, -5.121973, -0.068284, 36.941368
2020-05-11 13:21:00.528632, -0.002552, 0.001836, 0.998776, -0.000304, 0.000018, -0.000306, -5.206333, -0.118741, 37.075066
2020-05-11 13:21:00.581438, -0.003234, 0.002752, 0.999750, -0.000762, -0.000593, 0.001373, -5.173021, -0.171304, 37.260475
2020-05-11 13:21:00.634156, -0.002428, 0.001714, 0.998959, 0.000307, -0.001509, -0.000154, -5.275172, -0.298738, 37.307110
2020-05-11 13:21:00.686927, -0.002304, 0.003057, 0.999020, -0.001830, -0.001050, 0.000152, -5.317692, -0.260413, 37.344418
2020-05-11 13:21:00.739789, -0.003482, 0.002874, 0.999263, -0.000303, -0.000745, -0.000612, -5.323709, -0.412716, 37.205742
2020-05-11 13:21:00.792651, -0.002738, 0.001775, 0.999507, -0.000456, -0.001355, -0.000154, -5.406922, -0.412583, 37.248795
2020-05-11 13:21:00.845890, -0.002800, 0.002874, 1.000054, -0.001067, -0.000897, -0.000001, -5.378292, -0.467366, 37.219315
2020-05-11 13:21:00.898900, -0.002738, 0.001836, 0.999811, -0.001524, -0.000744, 0.000304, -5.265789, -0.517291, 37.128902
2020-05-11 13:21:00.951887, -0.002242, 0.002813, 0.998959, -0.001677, -0.000591, 0.001984, -5.332586, -0.496243, 37.175701
2020-05-11 13:21:01.004758, -0.003048, 0.001470, 0.999689, 0.000766, -0.000439, -0.000154, -5.229223, -0.552590, 37.018471
2020-05-11 13:21:01.057499, -0.001622, 0.003240, 0.998959, -0.000455, -0.000286, 0.000151, -5.191334, -0.481791, 36.976944
2020-05-11 13:21:01.110251, -0.003234, 0.003057, 0.998046, -0.000608, -0.001813, -0.000612, -5.116222, -0.516633, 37.054134
2020-05-11 13:21:01.163290, -0.003234, 0.002081, 0.998411, -0.000302, -0.000286, 0.000609, -5.072932, -0.532309, 37.110077
2020-05-11 13:21:01.216112, -0.003482, 0.002386, 0.998898, 0.000767, -0.000133, -0.000612, -5.178301, -0.410677, 37.352406
2020-05-11 13:21:01.268877, -0.002490, 0.002325, 0.999202, -0.000455, 0.000783, -0.000917, -5.268196, -0.319470, 37.238281
2020-05-11 13:21:01.321897, -0.003730, 0.002752, 0.998776, -0.000455, -0.000744, 0.000152, -5.480111, -0.411172, 37.181850
2020-05-11 13:21:01.374612, -0.002924, 0.002630, 1.000176, -0.000150, 0.000020, -0.000765, -5.408844, -0.582113, 37.258736
2020-05-11 13:21:01.427406, -0.002738, 0.002142, 0.999141, 0.000003, 0.000173, 0.000152, -5.223030, -0.389533, 37.215645
2020-05-11 13:21:01.480630, -0.003916, 0.003546, 0.998959, 0.000767, -0.000286, 0.000152, -5.180779, -0.198875, 37.207325
2020-05-11 13:21:01.533506, -0.002366, 0.002752, 0.998837, -0.001371, -0.000438, -0.000306, -5.118978, -0.308597, 37.264587
2020-05-11 13:21:01.586331, -0.003110, 0.002752, 0.998289, 0.000767, -0.000285, -0.001223, -5.287937, -0.280498, 37.420811
2020-05-11 13:21:01.639092, -0.003544, 0.002447, 0.998594, -0.000608, 0.000478, -0.000001, -5.271904, -0.221426, 37.685253
2020-05-11 13:21:01.691771, -0.003234, 0.002264, 0.998533, -0.001676, -0.000285, 0.001068, -5.460678, -0.137575, 37.920052
2020-05-11 13:21:01.744650, -0.001932, 0.003057, 0.997681, 0.000462, 0.000478, -0.000154, -5.426897, -0.131482, 37.942276
2020-05-11 13:21:01.797427, -0.002056, 0.002142, 0.997376, 0.000461, -0.000285, 0.001373, -5.366272, -0.138806, 38.119858
2020-05-11 13:21:01.850205, -0.003234, 0.002203, 0.998472, -0.000149, -0.000743, 0.001678, -5.261773, 0.050496, 38.334560
2020-05-11 13:21:01.903283, -0.003048, 0.002203, 0.998472, -0.000149, 0.000020, 0.000151, -5.172573, 0.116555, 38.454025
2020-05-11 13:21:01.956025, -0.003110, 0.003240, 0.997437, -0.000302, -0.000896, 0.000762, -5.269213, 0.023031, 38.398510
2020-05-11 13:21:02.008731, -0.002862, 0.003362, 0.998472, -0.000455, 0.000173, 0.001067, -5.391325, -0.094479, 38.069355
2020-05-11 13:21:02.061466, -0.003544, 0.001836, 0.998289, 0.000920, 0.000478, -0.000765, -5.304215, -0.273870, 37.960026
2020-05-11 13:21:02.114528, -0.001932, 0.002874, 0.998898, 0.000767, -0.000591, -0.000918, -5.363327, -0.191728, 37.991688
2020-05-11 13:21:02.167432, -0.003544, 0.002386, 0.998411, -0.001218, 0.000478, -0.000154, -5.354616, -0.315077, 37.671261
2020-05-11 13:21:02.220120, -0.002304, 0.002142, 0.997985, -0.000455, -0.000438, -0.000765, -5.358848, -0.255188, 37.699657
2020-05-11 13:21:02.272866, -0.003544, 0.002630, 0.998411, -0.000760, 0.000020, 0.001373, -5.233433, -0.341449, 37.710754
2020-05-11 13:21:02.325735, -0.003606, 0.002691, 0.998655, -0.000913, -0.000132, 0.001373, -5.093901, -0.398261, 37.498814
2020-05-11 13:21:02.378413, -0.003172, 0.001958, 0.998472, -0.000149, 0.000326, 0.002136, -5.211875, -0.224155, 37.448387
2020-05-11 13:21:02.431102, -0.003668, 0.002203, 0.998959, -0.000912, -0.000896, -0.000155, -5.334255, -0.145857, 37.530075
2020-05-11 13:21:02.483943, -0.003668, 0.003179, 0.998228, 0.000462, -0.000132, 0.000914, -5.208159, -0.229590, 37.255482
2020-05-11 13:21:02.536884, -0.002490, 0.002508, 0.999385, -0.000760, -0.000438, 0.000303, -5.073682, -0.296576, 37.114254
2020-05-11 13:21:02.589905, -0.002428, 0.002386, 0.999141, 0.000309, -0.000896, 0.001830, -5.240500, -0.258683, 37.367371
2020-05-11 13:21:02.642686, -0.002366, 0.002081, 0.999385, 0.000309, 0.000784, 0.000761, -5.273155, -0.069801, 37.723854
2020-05-11 13:21:02.695452, -0.003172, 0.002325, 1.000541, 0.000004, -0.000590, -0.000003, -5.276879, 0.032515, 37.724300
2020-05-11 13:21:02.748282, -0.002242, 0.003118, 0.999020, 0.000309, -0.000285, -0.000003, -5.235058, 0.193652, 37.808918
2020-05-11 13:21:02.801347, -0.002738, 0.002508, 0.999263, 0.001073, 0.000021, -0.001377, -5.268801, 0.224981, 37.769108
2020-05-11 13:21:02.854576, -0.003172, 0.003179, 1.000176, 0.000920, 0.000326, -0.001529, -5.211795, 0.170759, 37.435085
2020-05-11 13:21:02.907899, -0.002924, 0.002752, 1.000967, 0.000614, -0.000743, -0.000460, -5.126991, 0.139580, 37.292805
2020-05-11 13:21:02.961214, -0.004164, 0.002935, 0.999141, 0.000156, -0.001048, -0.000155, -5.014348, 0.120735, 37.269051
2020-05-11 13:21:03.013976, -0.002676, 0.002813, 0.999811, 0.000767, 0.000479, -0.001835, -5.187433, 0.008079, 37.267483
2020-05-11 13:21:03.066874, -0.003668, 0.002081, 1.000298, 0.001683, -0.000132, -0.001376, -5.185901, 0.100917, 37.318527
2020-05-11 13:21:03.119795, -0.002118, 0.002325, 0.999689, 0.001683, 0.000937, -0.000612, -5.179076, -0.050467, 37.458149
2020-05-11 13:21:03.172516, -0.001994, 0.002874, 0.999750, 0.002293, 0.000021, -0.000612, -5.179215, -0.244759, 37.276390
2020-05-11 13:21:03.225381, -0.002800, 0.002630, 0.999689, 0.000002, 0.000631, -0.001834, -5.095327, -0.150143, 37.084492
2020-05-11 13:21:03.278226, -0.002242, 0.001531, 1.000967, 0.000155, -0.001354, -0.001070, -5.157017, -0.129339, 37.125645
2020-05-11 13:21:03.331054, -0.003358, 0.002752, 0.999872, 0.001529, 0.000021, -0.000917, -5.206368, -0.179783, 37.056873
2020-05-11 13:21:03.383757, -0.002428, 0.002752, 1.000054, 0.000155, 0.000173, 0.000763, -5.380249, -0.244533, 37.118076
2020-05-11 13:21:03.436598, -0.001746, 0.003118, 1.000602, 0.000307, 0.000479, -0.000764, -5.306554, -0.265839, 37.132175
2020-05-11 13:21:03.489309, -0.003172, 0.002935, 1.000298, 0.000002, 0.000326, -0.000001, -5.236398, -0.167007, 37.253864
2020-05-11 13:21:03.542083, -0.003234, 0.002386, 1.000054, -0.000914, -0.000285, -0.001375, -5.281073, -0.203818, 37.310535
2020-05-11 13:21:03.594936, -0.004350, 0.001958, 1.000054, 0.000002, 0.000479, 0.000305, -5.216013, -0.123489, 37.448853
2020-05-11 13:21:03.647776, -0.003048, 0.002508, 0.999628, -0.001678, -0.000285, -0.000306, -5.046365, -0.010436, 37.664104
2020-05-11 13:21:03.701643, -0.003048, 0.002752, 0.999933, -0.000303, -0.000743, -0.000917, -5.000247, -0.029771, 37.647446
2020-05-11 13:21:03.754726, -0.002800, 0.002264, 0.999507, 0.000002, 0.000326, 0.000610, -4.935352, 0.021847, 37.555668
2020-05-11 13:21:03.807784, -0.003234, 0.002630, 0.998776, 0.000308, 0.000021, -0.001222, -4.894637, -0.022241, 37.496777
2020-05-11 13:21:03.860827, -0.002986, 0.002569, 1.000480, 0.000155, 0.000173, -0.001375, -5.030064, 0.003477, 37.432228
2020-05-11 13:21:03.913634, -0.002738, 0.001775, 0.999020, 0.000613, 0.000021, -0.001832, -5.116006, 0.024050, 37.383495
2020-05-11 13:21:03.966645, -0.002428, 0.002752, 1.000298, 0.000155, 0.000021, -0.001069, -5.117559, -0.063170, 37.542084
2020-05-11 13:21:04.019397, -0.003668, 0.002203, 0.999263, -0.000761, -0.000590, -0.000305, -5.113203, -0.200033, 37.131432
2020-05-11 13:21:04.072199, -0.002924, 0.003912, 0.999385, 0.000155, -0.000590, -0.000305, -4.936117, -0.205844, 37.041164
2020-05-11 13:21:04.125070, -0.002862, 0.000982, 0.998837, 0.000308, -0.000285, -0.000305, -4.979249, -0.259283, 37.152000
2020-05-11 13:21:04.177875, -0.002862, 0.003301, 0.999567, -0.000609, 0.000479, 0.000001, -4.974554, -0.234948, 36.892006
2020-05-11 13:21:04.230624, -0.002552, 0.001653, 0.998959, 0.000460, 0.000021, 0.000306, -4.897997, -0.319159, 36.736309
2020-05-11 13:21:04.283426, -0.002924, 0.001104, 0.999020, 0.001377, 0.000021, -0.000458, -4.769553, -0.252354, 36.937168
2020-05-11 13:21:04.336216, -0.002924, 0.002813, 0.998959, 0.000766, 0.000173, -0.000610, -4.756397, -0.137923, 37.251850
2020-05-11 13:21:04.389059, -0.003234, 0.001470, 0.998107, 0.001682, 0.000021, -0.001832, -4.790672, -0.131761, 37.175270
2020-05-11 13:21:04.441934, -0.002428, 0.003362, 0.998228, 0.000154, -0.000743, -0.000304, -4.986093, -0.157325, 37.230228
2020-05-11 13:21:04.494767, -0.003606, 0.001531, 0.999689, 0.000307, -0.001201, 0.000001, -4.946429, -0.019208, 37.155067
2020-05-11 13:21:04.547510, -0.004288, 0.002019, 0.998776, 0.001223, -0.000742, -0.001068, -4.959497, -0.036789, 37.365154
2020-05-11 13:21:04.600435, -0.003296, 0.003240, 0.999567, 0.001223, 0.000021, -0.000610, -4.801953, -0.032558, 37.204899
2020-05-11 13:21:04.653654, -0.002304, 0.000615, 1.000115, 0.000459, 0.000021, -0.001220, -4.916717, -0.187740, 37.288799
2020-05-11 13:21:04.706566, -0.001994, 0.003546, 0.999507, -0.000610, 0.000174, 0.000612, -4.823729, -0.135022, 37.108948
2020-05-11 13:21:04.759336, -0.002676, 0.002691, 0.998533, 0.000765, -0.000437, -0.001067, -4.788538, -0.086748, 36.970879
2020-05-11 13:21:04.812112, -0.003606, 0.003668, 0.998959, 0.000459, 0.000021, 0.000307, -4.933985, 0.067747, 37.229424
2020-05-11 13:21:04.864878, -0.002490, 0.001470, 0.998168, 0.001986, -0.000437, -0.000457, -4.904743, 0.026677, 36.959755
2020-05-11 13:21:04.917702, -0.002676, 0.002203, 0.999446, 0.000001, -0.000131, -0.000915, -4.741349, 0.018215, 37.298973
2020-05-11 13:21:04.970461, -0.002862, 0.002447, 0.999081, 0.000611, -0.001506, 0.000154, -4.840234, 0.170014, 37.529671
2020-05-11 13:21:05.023296, -0.003048, 0.002447, 0.998715, -0.000305, -0.000742, 0.000460, -4.768142, 0.041403, 37.356850
2020-05-11 13:21:05.076489, -0.003048, 0.002264, 0.998837, -0.001526, -0.001047, 0.001070, -4.744069, 0.042194, 37.352249
2020-05-11 13:21:05.129527, -0.003110, 0.002142, 1.000358, 0.000459, -0.000589, 0.000460, -4.814410, 0.018431, 37.827980
2020-05-11 13:21:05.182547, -0.003296, 0.003118, 0.999385, -0.001068, 0.000938, 0.000001, -4.719482, 0.090903, 37.723343
2020-05-11 13:21:05.235570, -0.003358, 0.002691, 1.000115, -0.001373, 0.000175, 0.000307, -4.789141, 0.118387, 37.909843
2020-05-11 13:21:05.288407, -0.003234, 0.002203, 1.000298, -0.000915, 0.000022, 0.000001, -4.889668, 0.744153, 38.015461
2020-05-11 13:21:05.341626, -0.002614, 0.002996, 0.999020, 0.000459, 0.000174, -0.000762, -4.858089, 0.512912, 37.704807
2020-05-11 13:21:05.394524, -0.003420, 0.002691, 0.999202, 0.000154, -0.000436, 0.000918, -4.978426, 0.559673, 37.880489
2020-05-11 13:21:05.447613, -0.002366, 0.002142, 0.999385, -0.001831, -0.001047, 0.000459, -4.940296, 0.389723, 37.715954
2020-05-11 13:21:05.500655, -0.001746, 0.002386, 0.998655, 0.000154, 0.000327, 0.000612, -5.060992, 0.296455, 37.482632
2020-05-11 13:21:05.553524, -0.003048, 0.001592, 0.999567, 0.000460, 0.000175, -0.000457, -5.129548, 0.075470, 37.670788
2020-05-11 13:21:05.606328, -0.001560, 0.003301, 0.998898, -0.001220, 0.000175, -0.000762, -5.173193, 0.160929, 37.533665
2020-05-11 13:21:05.659162, -0.003048, 0.002630, 0.999628, 0.000765, -0.000742, 0.000001, -5.191309, 0.217098, 37.577961
2020-05-11 13:21:05.711988, -0.002986, 0.002569, 0.998107, -0.000609, -0.000436, -0.001068, -5.217002, 0.036380, 37.529137
2020-05-11 13:21:05.764941, -0.003110, 0.002142, 0.997985, -0.000151, -0.000131, -0.001678, -5.248756, -0.065504, 37.612110
2020-05-11 13:21:05.818234, -0.002614, 0.003118, 0.999020, -0.000456, -0.000894, 0.000918, -5.296560, -0.049431, 37.582607
2020-05-11 13:21:05.871075, -0.003482, 0.001653, 0.997498, -0.000609, -0.000589, 0.000154, -5.379603, -0.067066, 37.718807
2020-05-11 13:21:05.923857, -0.002614, 0.002264, 0.998715, 0.000307, 0.001397, 0.000154, -5.429237, -0.136063, 38.031155
2020-05-11 13:21:05.976717, -0.003234, 0.001775, 0.997437, -0.000762, -0.000741, 0.002445, -5.194545, 0.028295, 38.263599
2020-05-11 13:21:06.029664, -0.001436, 0.003057, 0.998046, 0.000155, -0.000436, 0.000154, -5.197191, 0.086597, 38.167717
2020-05-11 13:21:06.082479, -0.003544, 0.002691, 0.998533, -0.000762, -0.000283, -0.000304, -5.165708, 0.188127, 38.189800
2020-05-11 13:21:06.135389, -0.002242, 0.002264, 0.998411, -0.001525, 0.000480, -0.000152, -5.134921, 0.434018, 38.297539
2020-05-11 13:21:06.188308, -0.002862, 0.002386, 0.997742, 0.000155, 0.000175, -0.000151, -5.115891, 0.453866, 38.261700
2020-05-11 13:21:06.241051, -0.003172, 0.002752, 0.997802, -0.001219, 0.000938, 0.000001, -5.223868, 0.402658, 38.305664
2020-05-11 13:21:06.293876, -0.002180, 0.001958, 0.999385, -0.001066, -0.000436, 0.000307, -5.332649, 0.276309, 38.387325
2020-05-11 13:21:06.346695, -0.003482, 0.002203, 0.998776, -0.001372, 0.000480, -0.000762, -5.296474, 0.211822, 38.324810
2020-05-11 13:21:06.399494, -0.002490, 0.003668, 0.998715, -0.000150, 0.000175, -0.000457, -5.177935, 0.276110, 38.085938
2020-05-11 13:21:06.452263, -0.001746, 0.000982, 0.998107, -0.000455, 0.001702, 0.002139, -5.122303, 0.223860, 38.028496
2020-05-11 13:21:06.505067, -0.003420, 0.003729, 0.999689, 0.000003, -0.001352, 0.000459, -5.049797, 0.194259, 38.113289
2020-05-11 13:21:06.557782, -0.003110, 0.002752, 0.999202, 0.000614, 0.000633, 0.000001, -5.014193, 0.115688, 37.899288
2020-05-11 13:21:06.610600, -0.003234, 0.002996, 0.998411, 0.001835, -0.000589, 0.001528, -4.890509, -0.008156, 37.672882
2020-05-11 13:21:06.663386, -0.002428, 0.003240, 0.998107, -0.000761, 0.000633, 0.001070, -4.909162, -0.040145, 37.471420
2020-05-11 13:21:06.716196, -0.002924, 0.000921, 0.999020, -0.000150, -0.000894, -0.000305, -5.036084, -0.059637, 37.629860
2020-05-11 13:21:06.768962, -0.003234, 0.002264, 0.999993, 0.000003, 0.000022, -0.000457, -5.137622, -0.111824, 38.023918
2020-05-11 13:21:06.821739, -0.002924, 0.003668, 0.998594, 0.000308, -0.000283, 0.000306, -5.330853, -0.019400, 37.859753
2020-05-11 13:21:06.874479, -0.001622, 0.000554, 0.999811, -0.000761, 0.000022, 0.000459, -5.272637, -0.043041, 37.803963
2020-05-11 13:21:06.927257, -0.001994, 0.004400, 0.999324, 0.000919, 0.000022, -0.000763, -5.136464, -0.061954, 37.965626
2020-05-11 13:21:06.980014, -0.004660, 0.001043, 0.999507, -0.000608, -0.000436, 0.001528, -5.133926, 0.111978, 38.036846
2020-05-11 13:21:07.032841, -0.001932, 0.004217, 1.000298, -0.000150, -0.000894, 0.000611, -5.143096, 0.043765, 38.067673
2020-05-11 13:21:07.085666, -0.003110, 0.001043, 1.000115, 0.001072, 0.000938, 0.000153, -5.212032, -0.065695, 38.109764
2020-05-11 13:21:07.138525, -0.002056, 0.004095, 0.999507, -0.000150, 0.000328, 0.000306, -5.278380, -0.195954, 38.169590
2020-05-11 13:21:07.191325, -0.002924, 0.001653, 1.000358, -0.000914, 0.000938, -0.000305, -5.320260, -0.129395, 38.136093
2020-05-11 13:21:07.244106, -0.003234, 0.002630, 1.000724, 0.000613, -0.000742, 0.000000, -5.370563, 0.021432, 38.056995
2020-05-11 13:21:07.296910, -0.002924, 0.002325, 1.000358, -0.000761, -0.000894, -0.000305, -5.511605, -0.071363, 38.138996
2020-05-11 13:21:07.349693, -0.002242, 0.002142, 0.999750, 0.000155, 0.000022, 0.000153, -5.400438, -0.102908, 38.152298
2020-05-11 13:21:07.402440, -0.001870, 0.000554, 1.000663, -0.000150, -0.000130, -0.000916, -5.423506, -0.122045, 38.261726
2020-05-11 13:21:07.455227, -0.003606, 0.003362, 0.999872, 0.000308, -0.000283, 0.000459, -5.318759, -0.100763, 38.218521
2020-05-11 13:21:07.507977, -0.002242, 0.002630, 0.999933, 0.000308, 0.000328, -0.000152, -5.352562, -0.065440, 38.146183
2020-05-11 13:21:07.560811, -0.003110, 0.003240, 1.000115, -0.000761, 0.000328, 0.000000, -5.245205, -0.085972, 38.134804
2020-05-11 13:21:07.613566, -0.021343, 0.007330, 1.001454, -0.001066, -0.000436, 0.001680, -5.170519, -0.035311, 38.058872
2020-05-11 13:21:07.666339, 0.023092, -0.003169, 1.001941, -0.000761, 0.000328, 0.003970, -5.177970, -0.110659, 38.076576
2020-05-11 13:21:07.719148, -0.018428, 0.008979, 1.000967, -0.000608, -0.001352, -0.002291, -5.195131, -0.207530, 38.230206
2020-05-11 13:21:07.771963, 0.001727, 0.001409, 1.000298, -0.001218, 0.000939, 0.000916, -5.259260, -0.138656, 38.178776
2020-05-11 13:21:07.824720, -0.000691, 0.004034, 0.999993, 0.000156, -0.000741, 0.000763, -5.366562, -0.156742, 37.992355
2020-05-11 13:21:07.877548, -0.006397, 0.003424, 0.999507, -0.001065, -0.001199, 0.000916, -5.351604, -0.256594, 38.005928
2020-05-11 13:21:07.932755, 0.001169, 0.002691, 0.999689, -0.000455, -0.000435, -0.000153, -5.401238, -0.312081, 37.830833
2020-05-11 13:21:07.985566, -0.009622, 0.004522, 0.999567, 0.000920, 0.000023, 0.001679, -5.368145, -0.118618, 37.865089
2020-05-11 13:21:08.038340, -0.002056, 0.002752, 0.999750, -0.000455, -0.000741, -0.000001, -5.392071, -0.116317, 37.828571
2020-05-11 13:21:08.091124, -0.001622, 0.000860, 1.000967, 0.000920, -0.000130, 0.000763, -5.019212, -0.071784, 37.590160
2020-05-11 13:21:08.143960, -0.003730, 0.002935, 1.000237, 0.000920, -0.000130, 0.000762, -5.112925, 0.165102, 37.785866
2020-05-11 13:21:08.196756, 0.001603, -0.000361, 1.000967, 0.000309, 0.000328, -0.000612, -5.087094, 0.281425, 37.791344
2020-05-11 13:21:08.249608, -0.003234, 0.002813, 1.000541, 0.000461, -0.001351, -0.001070, -5.122430, 0.179322, 37.757954
2020-05-11 13:21:08.302492, -0.002428, 0.003301, 1.000663, 0.000003, 0.000634, -0.000459, -4.971499, 0.061047, 37.757393
2020-05-11 13:21:08.355483, -0.004474, 0.001897, 1.001028, 0.000919, -0.000435, -0.000917, -5.085954, 0.057909, 37.925465
2020-05-11 13:21:08.408284, -0.000939, 0.003668, 0.999507, 0.000156, 0.000786, 0.000305, -5.003918, 0.049300, 37.934982
2020-05-11 13:21:08.461095, -0.004971, 0.003912, 0.999872, 0.000461, -0.000741, -0.000764, -4.994289, 0.066808, 38.177944
2020-05-11 13:21:08.513893, -0.002738, 0.002081, 1.000967, 0.000003, 0.000023, 0.000763, -4.969786, 0.032024, 37.767963
2020-05-11 13:21:08.566876, -0.002180, 0.002935, 1.000298, -0.001524, 0.000328, 0.000763, -5.000584, -0.014100, 37.832226
2020-05-11 13:21:08.619666, -0.002800, 0.003118, 1.000054, -0.000455, 0.000023, 0.000152, -5.042022, -0.032702, 37.930126
2020-05-11 13:21:08.672435, -0.003668, 0.002325, 1.000480, 0.000003, -0.000741, 0.000152, -5.002372, -0.023189, 37.898033
2020-05-11 13:21:08.725300, -0.003110, 0.001409, 0.999750, -0.000760, 0.000176, 0.000763, -5.037853, 0.027113, 37.828777
2020-05-11 13:21:08.778122, -0.002180, 0.001958, 0.999385, -0.000302, 0.000939, -0.000459, -4.920637, 0.055157, 37.738506
2020-05-11 13:21:08.830913, -0.003234, 0.001958, 1.000480, 0.001683, -0.000130, -0.001222, -4.927664, 0.114185, 37.718590
2020-05-11 13:21:08.883690, -0.001560, 0.002874, 1.000480, -0.000150, 0.000176, -0.000306, -4.927686, 0.112617, 37.615490
2020-05-11 13:21:08.936581, -0.003358, 0.002019, 1.001393, 0.000308, -0.000130, -0.000611, -4.726104, 0.227240, 37.893295
2020-05-11 13:21:08.989355, -0.002986, 0.001653, 0.999872, 0.001683, 0.000786, -0.000153, -4.828038, 0.123777, 37.824986
2020-05-11 13:21:09.042153, -0.003978, 0.003851, 0.999872, -0.000761, -0.000130, -0.000153, -4.937585, 0.150784, 37.741283
2020-05-11 13:21:09.094927, -0.002428, 0.001592, 0.999020, 0.001835, -0.000893, 0.000763, -4.986023, 0.178489, 38.081097
2020-05-11 13:21:09.147756, -0.002056, 0.003973, 0.999750, 0.000155, -0.001046, -0.000001, -4.895973, 0.042085, 37.917118
2020-05-11 13:21:09.200540, -0.003544, 0.001409, 0.999811, -0.001524, -0.000435, 0.000916, -5.025534, 0.006146, 38.009659
2020-05-11 13:21:09.253418, -0.003110, 0.002203, 1.000602, -0.001829, -0.000130, -0.000459, -5.073182, -0.168975, 38.135994
2020-05-11 13:21:09.306257, -0.002366, 0.003118, 0.999567, -0.001218, -0.000588, -0.000611, -5.072100, -0.156602, 37.961037
2020-05-11 13:21:09.359042, -0.002490, 0.000860, 0.999446, 0.000003, -0.000588, 0.000152, -5.015235, -0.146704, 37.893707
2020-05-11 13:21:09.411850, -0.002862, 0.003362, 1.000237, 0.000156, 0.000023, -0.000153, -4.958543, 0.074671, 37.717812
2020-05-11 13:21:09.464650, -0.002924, 0.002203, 1.000419, -0.001829, -0.001504, -0.000306, -5.081189, -0.108056, 37.876366
2020-05-11 13:21:09.517477, -0.003606, 0.002386, 1.000663, 0.000767, 0.000024, -0.000153, -5.078506, -0.101768, 37.825970
2020-05-11 13:21:09.570297, -0.002676, 0.002813, 1.000358, 0.000920, -0.000434, 0.000458, -5.143560, -0.072344, 37.805992
2020-05-11 13:21:09.623072, -0.003358, 0.003851, 1.000419, 0.000003, 0.000024, -0.000153, -5.167603, -0.134186, 37.978870
2020-05-11 13:21:09.675936, -0.003420, 0.001714, 0.999993, 0.000156, -0.000434, 0.000763, -5.209237, -0.116574, 37.902164
2020-05-11 13:21:09.728720, -0.000877, 0.003179, 0.999324, -0.001371, -0.001045, 0.000763, -5.141744, -0.114682, 37.779785
2020-05-11 13:21:09.781721, -0.005157, 0.002203, 1.001393, 0.000920, 0.000177, 0.000763, -4.930950, -0.222946, 37.835873
2020-05-11 13:21:09.834731, 0.000487, 0.002081, 0.999324, -0.000760, -0.001656, 0.001221, -4.896715, -0.090001, 37.654110
2020-05-11 13:21:09.887579, -0.003048, 0.002325, 1.000054, 0.000614, -0.000434, 0.000610, -4.706927, -0.093423, 37.819592
2020-05-11 13:21:09.940529, -0.003978, 0.000737, 1.000906, 0.000309, -0.000587, 0.001068, -4.823896, -0.108359, 37.867718
2020-05-11 13:21:09.993335, -0.001932, 0.003485, 0.999263, -0.000302, -0.000434, -0.000001, -4.788672, 0.080953, 38.150284
2020-05-11 13:21:10.046245, -0.004040, 0.002203, 0.999689, 0.000003, -0.001350, 0.001067, -4.794092, 0.153118, 37.943413
2020-05-11 13:21:10.099105, -0.001994, 0.003179, 0.999628, -0.001065, -0.000433, 0.000456, -4.916028, 0.198652, 38.173069
2020-05-11 13:21:10.151873, -0.003420, 0.001470, 1.000906, 0.000767, -0.000128, 0.000914, -4.901577, 0.228981, 38.074955
2020-05-11 13:21:10.204691, -0.001125, 0.002386, 1.001515, -0.000760, 0.000025, -0.000460, -4.761217, 0.247145, 37.886055
2020-05-11 13:21:10.257578, -0.002986, -0.001582, 1.001454, -0.000302, 0.000483, -0.000612, -4.996129, 0.164096, 38.318947
2020-05-11 13:21:10.310400, -0.003792, 0.004522, 1.000237, 0.000767, -0.000281, -0.001376, -4.948858, 0.048867, 38.267200
2020-05-11 13:21:10.363200, -0.004350, 0.000188, 1.000602, 0.000767, 0.000635, -0.000001, -4.983841, 0.084757, 38.298443
2020-05-11 13:21:10.416067, -0.003110, 0.004522, 0.999993, -0.000607, 0.000330, 0.001373, -4.916628, 0.009791, 38.099712
2020-05-11 13:21:10.468899, -0.001250, 0.003485, 1.000237, 0.001225, -0.000434, -0.000154, -4.991657, 0.004706, 38.109249
2020-05-11 13:21:10.521714, -0.004971, 0.002081, 1.001637, -0.000455, 0.000330, 0.000304, -4.984480, 0.055528, 38.050049
2020-05-11 13:21:10.574482, -0.001312, 0.005316, 1.000298, -0.000149, -0.000434, 0.001678, -4.866739, 0.108383, 38.084045
2020-05-11 13:21:10.627268, 0.003960, -0.001643, 0.996281, 0.001378, -0.001044, 0.001220, -4.738946, -0.074988, 37.997925
2020-05-11 13:21:10.680101, -0.002676, 0.002019, 0.999933, 0.001683, -0.000281, -0.001682, -4.659112, -0.063117, 38.173096
2020-05-11 13:21:10.732914, -0.003978, 0.000005, 1.000845, 0.000461, -0.001044, 0.000151, -4.623244, -0.102409, 38.173767
2020-05-11 13:21:10.785751, -0.002366, 0.003607, 0.999872, -0.000608, 0.000941, -0.001376, -4.734550, 0.018625, 38.290524
2020-05-11 13:21:10.838570, -0.001374, -0.000972, 1.000845, 0.000156, -0.000433, -0.000765, -4.851595, 0.042268, 38.183449
2020-05-11 13:21:10.891408, 0.006875, 0.002264, 0.998533, -0.001066, -0.001197, 0.000151, -4.911631, 0.140466, 38.266308
2020-05-11 13:21:10.944230, 0.012166, 0.026804, 1.047706, 0.002446, 0.000025, -0.000154, -5.054860, 0.054358, 38.123398
2020-05-11 13:21:10.997099, 0.004332, 0.012703, 1.006201, 0.000766, -0.001807, -0.001834, -5.057443, -0.093813, 38.215363
2020-05-11 13:21:11.049926, 0.021803, 0.013984, 1.001150, 0.028098, -0.025627, -0.022752, -5.177109, -0.133065, 38.207581
2020-05-11 13:21:11.102725, -0.022459, 0.049025, 0.973277, 0.003205, -0.000428, 0.001377, -5.110442, -0.060788, 38.102566
2020-05-11 13:21:11.155553, -0.024630, -0.011716, 0.999872, 0.007634, -0.003941, -0.000761, -4.956308, -0.173732, 38.004025
2020-05-11 13:21:11.208365, -0.001622, -0.002925, 1.004253, 0.000456, -0.001345, 0.003820, -4.872201, -0.123815, 38.018169
2020-05-11 13:21:11.261184, -0.009870, -0.010251, 1.000724, 0.000456, -0.002719, 0.005346, -4.754516, 0.038094, 37.779610
2020-05-11 13:21:11.313983, -0.002490, 0.003851, 0.999385, -0.001682, -0.000580, -0.003053, -4.805967, 0.106633, 37.940331
2020-05-11 13:21:11.366843, -0.003296, 0.001775, 1.000419, -0.001987, -0.001496, 0.000154, -4.942329, 0.002896, 37.723148
2020-05-11 13:21:11.419659, -0.000753, 0.002691, 0.997011, -0.000154, 0.000031, 0.000460, -4.911418, -0.141081, 37.595894
2020-05-11 13:21:11.472569, -0.001870, 0.000310, 1.001089, 0.000915, -0.000275, -0.001067, -4.903489, -0.036707, 37.499901
2020-05-11 13:21:11.525498, -0.006335, -0.000911, 1.002184, -0.001376, -0.000122, -0.000304, -4.869146, -0.020294, 37.385334
2020-05-11 13:21:11.578326, -0.006893, -0.001582, 1.002002, 0.000151, 0.000336, 0.000918, -4.785672, -0.007164, 37.566799
2020-05-11 13:21:11.631106, -0.006149, 0.000310, 1.000054, -0.000459, -0.000122, 0.000460, -4.730092, 0.046032, 37.639336
2020-05-11 13:21:11.683974, -0.004536, -0.000239, 1.000419, -0.000765, -0.000885, -0.000457, -4.836828, 0.180070, 37.525936
2020-05-11 13:21:11.736747, -0.007265, -0.002559, 1.001941, -0.000306, -0.000580, -0.001373, -5.045417, 0.165325, 37.644417
2020-05-11 13:21:11.789627, -0.006831, -0.000850, 1.000054, 0.000457, -0.000427, 0.000002, -5.083488, 0.251110, 37.747917
2020-05-11 13:21:11.842379, -0.004288, 0.002325, 1.000906, -0.000612, -0.000732, -0.000151, -5.214746, 0.344133, 38.266544
2020-05-11 13:21:11.895186, -0.005529, -0.000300, 0.998411, -0.000764, 0.000489, 0.000613, -5.196551, 0.345365, 38.422855
2020-05-11 13:21:11.947957, -0.006521, -0.001826, 0.999933, 0.000610, -0.000122, -0.000304, -4.969196, 0.523216, 38.591488
2020-05-11 13:21:12.000780, -0.004226, 0.002081, 1.003584, -0.000001, 0.000489, -0.002136, -4.843311, 0.403249, 38.374825
2020-05-11 13:21:12.053542, -0.004660, -0.001765, 1.001515, 0.000304, 0.000642, 0.001224, -4.843404, 0.593918, 38.216022
2020-05-11 13:21:12.106388, -0.004288, 0.002142, 1.000724, -0.000154, -0.000122, 0.000307, -4.821078, 0.600083, 38.088982
2020-05-11 13:21:12.159161, -0.004350, 0.000371, 1.000541, -0.000001, 0.000184, 0.000307, -4.803217, 0.550126, 38.068703
2020-05-11 13:21:12.212048, -0.004164, 0.000860, 0.999628, -0.000612, 0.000184, 0.001071, -4.811328, 0.546752, 37.962406
2020-05-11 13:21:12.264907, -0.003420, 0.001958, 1.000906, -0.001070, -0.000122, 0.000460, -4.845818, 0.342794, 37.880276
2020-05-11 13:21:12.317771, -0.004040, -0.000789, 0.999628, -0.000153, -0.001038, 0.001070, -4.627009, 0.234516, 37.736122
2020-05-11 13:21:12.370538, -0.004660, 0.000982, 1.001515, -0.000001, 0.000489, -0.000609, -4.603162, 0.153993, 37.713776
2020-05-11 13:21:12.423367, -0.004660, -0.000483, 0.999446, 0.000610, 0.000642, 0.000307, -4.494484, 0.199352, 37.687183
2020-05-11 13:21:12.476176, -0.004722, -0.000483, 1.001028, -0.000764, -0.000580, 0.001376, -4.637142, 0.375912, 37.962273
2020-05-11 13:21:12.529019, -0.005219, 0.000005, 1.000906, -0.000459, -0.000122, 0.001681, -4.728868, 0.358591, 37.949902
2020-05-11 13:21:12.581778, -0.004040, -0.001033, 1.000298, -0.000917, -0.000274, -0.000457, -4.662250, 0.363031, 37.809258
2020-05-11 13:21:12.634577, -0.005157, -0.000300, 1.000785, 0.001068, -0.000885, 0.000612, -4.760155, 0.470262, 37.850735
2020-05-11 13:21:12.687379, -0.004040, 0.000676, 0.999567, 0.000457, 0.000031, 0.000306, -4.748878, 0.403578, 37.915878
2020-05-11 13:21:12.740187, -0.004784, 0.000493, 1.000541, -0.000001, 0.000795, 0.000001, -4.723058, 0.405119, 37.886635
2020-05-11 13:21:12.792950, -0.005467, -0.000422, 0.998837, -0.000459, -0.000427, 0.000764, -4.736001, 0.442945, 38.008518
2020-05-11 13:21:12.845799, -0.004598, 0.001104, 0.999507, 0.000457, -0.000732, 0.000459, -4.639956, 0.192662, 37.821285
2020-05-11 13:21:12.898606, -0.004474, -0.000483, 1.000724, 0.000305, -0.000274, 0.000306, -4.708719, 0.187596, 37.729607
2020-05-11 13:21:12.951425, -0.004412, -0.000728, 0.999081, 0.001373, 0.000337, -0.000458, -4.679730, 0.171346, 37.458691
2020-05-11 13:21:13.004212, -0.004598, -0.000300, 1.000115, 0.000915, -0.000427, 0.000611, -4.667739, 0.146148, 37.468586
2020-05-11 13:21:13.057054, -0.004971, -0.001277, 0.999567, -0.000001, 0.000489, 0.000764, -4.669346, 0.071101, 37.479408
2020-05-11 13:21:13.109818, -0.005777, 0.000005, 0.999020, -0.000917, -0.000580, -0.000152, -4.726631, 0.053754, 37.557800
2020-05-11 13:21:13.162666, -0.005777, 0.000493, 0.999811, 0.000915, 0.000184, -0.000763, -4.565260, 0.015482, 37.402599
2020-05-11 13:21:13.215594, -0.005839, -0.000789, 0.999567, 0.001984, 0.000184, 0.000306, -4.587363, 0.033655, 37.400471
2020-05-11 13:21:13.268421, -0.005219, 0.001043, 0.998898, 0.000304, 0.000947, -0.000458, -4.593845, 0.066490, 37.445255
2020-05-11 13:21:13.321209, -0.005653, -0.000972, 0.999750, 0.000762, -0.000274, -0.000763, -4.733431, 0.062263, 37.832653
2020-05-11 13:21:13.374017, -0.005405, 0.000066, 0.999811, 0.000456, 0.000489, 0.001070, -4.727499, -0.020402, 37.866547
2020-05-11 13:21:13.426775, -0.004412, 0.000127, 0.999872, 0.000762, -0.000732, 0.000000, -4.795555, -0.013349, 37.887848
2020-05-11 13:21:13.479585, -0.005157, -0.000544, 1.000358, -0.000155, 0.000031, -0.000152, -4.950799, 0.120368, 37.593998
2020-05-11 13:21:13.532383, -0.005157, -0.000789, 1.000419, 0.000304, 0.000489, 0.000153, -4.862194, 0.215144, 37.815086
2020-05-11 13:21:13.585259, -0.005281, 0.000371, 1.000237, -0.000765, -0.000122, -0.000152, -4.908910, 0.236076, 37.779854
2020-05-11 13:21:13.638025, -0.005529, -0.000300, 0.999993, 0.000304, 0.000031, 0.000917, -4.806283, 0.124747, 37.911472
2020-05-11 13:21:13.690908, -0.004040, -0.000117, 0.999263, -0.001987, -0.000732, -0.001221, -4.623381, 0.151560, 37.737835
2020-05-11 13:21:13.743676, -0.004784, -0.000056, 0.999081, -0.000612, 0.000489, 0.000611, -4.779459, 0.130320, 37.575680
2020-05-11 13:21:13.796526, -0.005033, 0.000676, 1.001332, -0.000765, 0.000337, 0.000459, -4.730722, 0.107228, 37.533123
2020-05-11 13:21:13.849292, -0.003978, 0.000066, 1.000480, 0.000457, -0.000122, -0.001068, -4.775732, -0.088109, 37.472927
2020-05-11 13:21:13.902114, -0.004040, -0.000056, 1.000480, -0.000154, -0.000274, -0.000457, -4.817340, -0.067515, 37.137123
2020-05-11 13:21:13.954956, -0.005219, -0.000239, 0.999507, 0.000610, -0.001190, 0.000306, -4.917827, -0.124224, 37.031189
2020-05-11 13:21:14.007812, -0.005715, -0.000483, 1.000176, -0.000001, 0.000948, 0.000001, -4.813416, -0.133000, 37.181789
2020-05-11 13:21:14.060589, -0.005467, 0.000066, 0.999263, -0.000307, 0.000795, -0.000457, -4.959488, -0.140020, 37.235443
2020-05-11 13:21:14.113434, -0.004536, 0.000127, 1.000237, 0.000304, 0.000947, 0.001222, -4.801946, -0.151734, 37.420738
2020-05-11 13:21:14.166259, -0.004722, 0.000371, 0.999750, -0.001528, 0.000642, 0.000153, -4.815911, -0.209897, 37.548634
2020-05-11 13:21:14.219076, -0.004288, -0.000239, 1.000845, -0.000001, 0.000336, -0.000458, -4.877484, -0.256427, 37.383644
2020-05-11 13:21:14.271952, -0.003916, -0.000422, 0.999263, 0.001068, -0.000122, -0.000305, -4.853942, -0.226564, 37.498623
2020-05-11 13:21:14.324779, -0.005157, 0.000005, 0.999020, 0.001526, -0.000733, 0.000611, -4.874308, -0.123389, 37.500534
2020-05-11 13:21:14.377654, -0.004102, -0.001094, 0.998715, 0.000762, 0.000184, -0.000152, -4.924201, -0.132331, 37.740314
2020-05-11 13:21:14.430474, -0.004598, -0.000361, 1.000176, 0.000151, -0.000122, -0.000152, -4.874516, 0.025182, 37.702602
2020-05-11 13:21:14.483345, -0.004598, 0.000432, 0.999020, -0.000307, 0.000184, 0.000153, -4.862768, 0.126797, 37.652096
2020-05-11 13:21:14.536195, -0.003792, 0.000249, 0.998594, -0.000765, 0.000642, 0.000764, -4.791769, 0.055620, 37.652367
2020-05-11 13:21:14.589011, -0.004846, -0.000056, 0.999446, 0.001220, -0.000122, -0.001374, -4.824570, 0.120654, 37.672920
2020-05-11 13:21:14.641813, -0.004660, -0.000056, 1.000785, 0.000762, -0.000122, 0.000764, -4.677210, 0.148286, 37.401718
2020-05-11 13:21:14.694707, -0.003916, 0.000310, 1.000176, -0.001071, 0.000031, 0.000306, -4.777723, 0.085009, 37.216717
2020-05-11 13:21:14.747586, -0.004288, 0.000188, 0.999081, -0.000307, -0.000122, 0.000000, -4.790934, 0.101474, 37.382511
2020-05-11 13:21:14.800364, -0.004846, -0.000239, 0.999263, 0.000609, 0.000336, -0.000763, -4.795902, -0.031725, 37.233311
2020-05-11 13:21:14.853184, -0.004909, 0.000066, 0.999993, 0.000151, -0.000122, 0.000611, -4.665476, -0.217568, 37.081989
2020-05-11 13:21:14.905945, -0.004909, 0.000066, 0.999081, -0.000765, 0.000642, -0.000458, -4.667536, -0.219872, 37.274731
2020-05-11 13:21:14.958750, -0.005343, -0.000422, 0.999872, -0.000612, -0.000275, 0.001375, -4.803583, -0.294901, 37.643932
2020-05-11 13:21:15.011644, -0.004784, 0.000310, 1.001028, -0.000307, -0.000427, 0.000153, -4.884421, -0.196355, 37.547047
2020-05-11 13:21:15.064456, -0.006149, 0.000066, 1.000237, 0.000304, 0.000489, 0.000458, -4.932292, -0.166309, 37.760090
2020-05-11 13:21:15.117283, -0.005653, -0.000606, 1.000724, -0.001376, 0.000031, 0.000306, -4.903389, -0.160569, 37.854984
2020-05-11 13:21:15.170100, -0.004846, -0.000972, 0.998898, -0.001528, 0.000489, 0.001374, -4.880266, 0.051382, 37.625816
2020-05-11 13:21:15.222870, -0.004412, 0.000860, 1.000115, -0.000001, -0.000122, 0.001069, -4.900967, 0.147758, 37.395996
2020-05-11 13:21:15.275695, -0.005157, -0.000483, 0.999811, -0.000001, 0.000183, 0.001221, -4.687929, 0.188265, 37.331264
2020-05-11 13:21:15.328458, -0.005839, 0.000493, 1.000298, -0.001528, -0.001191, 0.001068, -4.629498, 0.232869, 37.514828
2020-05-11 13:21:15.381272, -0.004722, -0.000972, 0.999811, -0.000001, 0.001558, 0.000763, -4.465153, 0.048996, 37.545456
2020-05-11 13:21:15.434041, -0.005653, -0.000361, 1.001028, -0.001070, -0.000122, 0.001526, -4.518477, -0.018818, 37.474079
2020-05-11 13:21:15.486905, -0.005777, -0.000056, 0.998898, 0.001374, 0.000183, -0.000306, -4.387537, -0.042576, 37.495426
2020-05-11 13:21:15.539705, -0.004412, 0.000127, 0.999628, -0.000306, -0.000275, -0.000459, -4.377984, -0.049384, 37.451488
2020-05-11 13:21:15.592517, -0.004164, -0.000239, 0.999993, -0.000764, 0.000183, 0.000304, -4.353542, -0.085325, 37.244911
2020-05-11 13:21:15.645320, -0.004846, -0.000972, 0.998715, -0.000459, -0.000122, -0.000612, -4.345189, -0.101880, 37.050594
2020-05-11 13:21:15.698146, -0.004350, 0.000310, 1.000054, -0.001375, 0.000031, -0.000001, -4.131306, -0.078532, 36.877708
2020-05-11 13:21:15.750926, -0.005095, 0.000737, 0.997985, -0.001833, -0.000122, -0.000306, -4.150599, 0.049926, 37.085155
2020-05-11 13:21:15.803730, -0.005157, 0.000615, 0.999567, 0.000305, -0.001496, 0.001221, -4.233234, -0.011976, 37.053539
2020-05-11 13:21:15.856544, -0.005219, 0.000676, 0.999689, -0.000153, -0.000122, -0.000001, -4.288142, -0.055398, 37.170616
2020-05-11 13:21:15.909362, -0.005529, -0.000117, 1.000845, -0.000611, -0.001191, 0.001526, -4.292869, -0.071840, 37.331104
2020-05-11 13:21:15.962113, -0.003978, 0.000432, 1.000602, 0.000763, -0.000885, 0.000915, -4.352650, -0.097191, 37.648354
2020-05-11 13:21:16.014945, -0.004722, -0.000117, 1.000176, -0.000764, 0.000795, 0.000915, -4.490075, -0.099175, 37.483757
2020-05-11 13:21:16.067727, -0.005281, 0.000127, 1.000663, 0.000153, -0.000885, -0.000765, -4.454414, 0.082201, 37.593239
2020-05-11 13:21:16.120539, -0.004784, 0.000493, 1.000176, -0.000305, 0.000184, 0.000762, -4.448286, -0.034946, 37.579132
2020-05-11 13:21:16.173292, -0.004722, -0.000239, 1.000845, 0.000611, 0.000184, -0.000765, -4.527384, -0.092070, 37.399326
2020-05-11 13:21:16.226179, -0.005033, -0.000239, 0.999202, 0.001374, -0.001190, 0.001678, -4.562662, -0.088980, 37.089867
2020-05-11 13:21:16.278949, -0.005529, -0.000300, 0.999872, -0.000000, -0.000274, 0.001983, -4.596485, -0.098705, 37.286842
2020-05-11 13:21:16.331771, -0.005033, 0.000493, 0.999628, 0.000916, 0.000337, 0.001219, -4.612343, -0.179671, 37.508347
2020-05-11 13:21:16.384560, -0.005157, 0.000554, 1.000358, -0.000306, 0.000184, -0.000155, -4.574629, -0.104171, 37.493786
2020-05-11 13:21:16.437442, -0.004350, -0.000422, 1.001271, -0.000306, 0.001406, 0.001525, -4.443658, -0.092562, 37.624508
2020-05-11 13:21:16.490226, -0.005901, -0.000667, 0.999750, -0.000153, 0.000184, -0.000613, -4.512481, -0.071077, 37.455963
2020-05-11 13:21:16.543033, -0.005963, -0.000300, 0.999446, -0.001680, -0.000122, 0.000914, -4.293140, -0.029494, 37.512894
2020-05-11 13:21:16.595822, -0.006025, -0.000911, 1.000906, 0.000305, -0.000885, -0.000461, -4.386467, 0.095255, 37.782166
2020-05-11 13:21:16.648628, -0.005033, 0.000249, 0.999993, -0.001069, -0.000121, 0.001830, -4.472328, 0.079176, 37.759327
2020-05-11 13:21:16.701388, -0.004288, 0.000249, 1.000054, 0.000458, -0.000274, 0.000608, -4.557817, 0.139499, 37.543480
2020-05-11 13:21:16.754277, -0.004971, -0.000667, 0.998898, 0.000763, -0.000121, -0.000461, -4.609409, 0.169461, 38.114616
2020-05-11 13:21:16.807057, -0.005281, -0.000361, 0.999020, -0.001222, 0.000184, 0.000455, -4.577882, 0.059257, 38.124077
2020-05-11 13:21:16.859865, -0.004722, 0.000554, 0.998715, -0.000305, -0.000274, -0.000308, -4.681460, -0.083795, 37.983463
2020-05-11 13:21:16.912644, -0.004722, 0.000799, 0.998350, 0.000306, 0.000642, -0.000003, -4.697123, -0.161644, 37.760563
2020-05-11 13:21:16.965520, -0.003792, -0.000117, 0.998594, -0.000763, 0.000795, 0.000150, -4.558453, -0.095848, 37.579334
2020-05-11 13:21:17.018282, -0.003544, -0.000056, 0.998046, 0.000153, 0.000184, 0.001066, -4.609917, -0.128595, 37.521519
2020-05-11 13:21:17.071093, -0.004784, 0.000615, 0.999507, -0.000152, -0.000732, 0.000455, -4.483088, -0.203583, 37.643787
2020-05-11 13:21:17.123882, -0.003854, -0.000117, 0.998776, -0.000763, -0.000274, 0.000455, -4.460026, -0.074511, 37.689301
2020-05-11 13:21:17.176722, -0.004722, -0.000117, 1.000115, 0.000764, 0.000184, 0.000608, -4.402376, -0.190809, 37.653076
2020-05-11 13:21:17.229479, -0.005157, 0.000005, 0.997802, 0.000764, -0.000427, 0.000607, -4.529856, -0.088687, 37.522400
2020-05-11 13:21:17.282333, -0.004971, 0.000066, 0.999628, 0.000305, 0.000184, 0.000455, -4.435839, -0.232644, 37.441105
2020-05-11 13:21:17.335131, -0.004350, -0.000300, 0.998594, -0.000611, 0.001864, 0.001065, -4.444626, -0.219735, 37.611416
2020-05-11 13:21:17.387957, -0.003854, 0.000799, 0.998715, 0.000611, -0.000427, 0.000913, -4.384455, -0.331383, 37.692459
2020-05-11 13:21:17.440735, -0.004598, -0.000422, 0.999081, -0.000611, 0.000031, 0.002134, -4.532319, -0.262134, 37.905476
2020-05-11 13:21:17.493558, -0.004660, -0.000483, 0.998472, -0.000153, -0.000427, 0.001523, -4.505010, -0.292118, 37.933521
2020-05-11 13:21:17.546342, -0.004971, 0.000493, 0.999324, -0.001069, -0.000427, -0.000310, -4.606363, -0.255117, 37.955956
2020-05-11 13:21:17.599163, -0.004784, -0.000667, 0.998898, -0.000152, 0.000031, 0.000912, -4.760245, -0.237713, 37.982620
2020-05-11 13:21:17.651919, -0.005281, 0.000249, 0.998289, -0.000916, 0.000336, -0.000768, -4.541750, -0.162803, 38.224773
2020-05-11 13:21:17.704734, -0.004909, 0.000005, 0.999689, -0.000763, -0.000122, 0.001217, -4.590955, -0.285838, 38.151184
2020-05-11 13:21:17.757552, -0.004226, -0.000422, 0.997802, -0.000152, -0.000274, 0.000912, -4.680719, -0.494044, 38.284081
2020-05-11 13:21:17.810365, -0.005281, 0.000737, 0.999872, -0.000152, -0.000580, 0.000453, -4.629330, -0.477645, 38.073692
2020-05-11 13:21:17.863130, -0.004722, -0.000117, 0.998898, 0.000459, 0.000031, 0.000148, -4.705819, -0.458428, 38.129108
2020-05-11 13:21:17.916024, -0.005405, -0.000667, 0.999385, -0.000610, -0.000580, 0.002438, -4.632610, -0.485745, 38.060127
2020-05-11 13:21:17.968814, -0.004846, -0.000911, 0.998655, -0.001832, -0.000274, 0.002132, -4.585243, -0.422216, 37.836422
2020-05-11 13:21:18.021623, -0.005405, 0.000493, 0.998411, 0.000917, -0.000579, 0.000452, -4.715349, -0.395788, 37.741718
2020-05-11 13:21:18.074379, -0.005901, -0.001094, 0.998776, -0.000763, -0.000121, -0.000769, -4.858634, -0.374645, 37.851906
2020-05-11 13:21:18.127279, -0.005405, 0.000676, 0.998472, -0.001526, 0.000642, 0.001979, -4.760462, -0.540695, 37.457741
2020-05-11 13:21:18.180068, -0.005219, -0.000361, 0.998168, 0.000154, -0.001954, 0.000147, -4.849924, -0.575954, 37.456203
2020-05-11 13:21:18.232875, -0.005653, -0.000544, 0.998655, 0.000001, -0.000121, -0.000159, -4.708694, -0.567568, 37.469501
2020-05-11 13:21:18.285650, -0.005653, 0.000493, 0.999324, -0.000151, 0.000032, 0.000452, -4.825310, -0.548663, 37.625416
2020-05-11 13:21:18.338474, -0.004598, -0.001033, 0.999872, -0.001984, -0.000732, 0.000758, -4.689003, -0.417661, 37.381145
2020-05-11 13:21:18.391255, -0.004660, -0.000117, 0.998837, -0.000609, -0.000426, -0.000311, -4.770357, -0.489724, 37.461754
2020-05-11 13:21:18.444068, -0.005467, 0.001714, 0.998776, 0.000307, 0.000185, 0.000299, -4.807440, -0.279029, 37.546581
2020-05-11 13:21:18.496877, -0.004536, 0.000188, 0.998594, 0.000154, 0.000643, -0.000617, -4.814707, -0.305633, 37.684177
2020-05-11 13:21:18.553844, -0.004412, 0.000310, 0.999020, 0.000460, -0.000732, 0.000910, -4.669320, -0.320818, 37.863987
2020-05-11 13:21:18.606655, -0.004288, 0.000554, 1.000237, 0.001528, 0.000490, -0.000311, -4.861011, -0.284176, 38.054321
2020-05-11 13:21:18.659477, -0.004971, -0.000300, 0.999446, 0.000307, -0.000426, 0.000605, -4.773563, -0.328047, 38.104897
2020-05-11 13:21:18.712268, -0.004909, -0.000239, 0.997924, -0.001220, -0.000121, 0.001979, -4.681206, -0.241169, 37.921631
2020-05-11 13:21:18.765098, -0.004784, 0.000005, 0.998959, 0.000307, -0.000579, -0.000159, -4.680120, -0.269246, 37.984215
2020-05-11 13:21:18.817842, -0.004536, 0.000799, 0.998594, -0.000457, 0.000795, 0.000757, -4.623250, -0.212424, 37.871574
2020-05-11 13:21:18.870623, -0.004598, -0.000239, 0.998411, 0.000765, -0.000732, -0.001228, -4.443355, -0.166967, 37.793083
2020-05-11 13:21:18.923370, -0.004536, 0.000676, 0.998655, 0.000307, 0.001101, 0.000146, -4.579439, -0.142799, 37.741913
2020-05-11 13:21:18.976208, -0.004784, -0.000117, 0.998776, -0.000762, -0.000274, -0.000312, -4.537106, -0.318625, 37.683544
2020-05-11 13:21:19.028995, -0.005157, 0.000005, 0.998776, -0.001678, -0.000884, -0.000312, -4.581640, -0.221433, 37.994228
2020-05-11 13:21:19.081798, -0.004412, 0.001470, 0.997559, -0.000609, 0.000337, 0.000146, -4.505267, -0.198569, 38.062634
2020-05-11 13:21:19.134579, -0.004784, 0.000676, 0.999811, -0.000304, 0.000185, 0.002131, -4.696168, -0.241266, 38.155128
2020-05-11 13:21:19.187473, -0.003978, 0.000188, 0.999263, 0.000460, -0.001342, 0.000299, -4.826489, -0.232731, 38.048981
2020-05-11 13:21:19.240259, -0.005653, -0.000667, 0.999446, -0.000151, 0.000337, 0.000299, -4.852346, -0.067335, 38.362122
2020-05-11 13:21:19.293068, -0.005281, -0.000544, 0.999263, -0.001830, 0.000185, 0.001520, -4.945831, 0.058883, 38.202953
2020-05-11 13:21:19.345886, -0.005591, 0.000860, 0.998959, 0.000613, -0.000273, -0.000618, -4.875020, 0.068375, 38.084335
2020-05-11 13:21:19.398693, -0.004846, -0.000056, 0.998168, 0.000002, 0.000643, -0.000465, -4.728770, -0.070401, 37.948765
2020-05-11 13:21:19.451460, -0.004971, 0.000127, 0.998533, -0.001219, -0.000426, 0.001215, -4.914171, 0.001541, 38.003017
2020-05-11 13:21:19.504262, -0.003792, 0.000188, 0.999081, 0.000460, 0.000490, -0.000160, -4.894492, -0.105573, 37.773300
2020-05-11 13:21:19.557074, -0.005467, 0.000676, 0.999141, -0.000303, -0.000273, -0.000007, -4.923548, 0.064885, 37.842308
2020-05-11 13:21:19.609910, -0.005033, 0.000310, 0.998898, -0.000303, -0.000579, -0.001076, -4.767593, 0.030486, 37.763859
2020-05-11 13:21:19.662674, -0.005591, -0.000117, 0.999628, 0.001224, -0.000884, -0.000007, -4.838830, -0.021429, 37.863808
2020-05-11 13:21:19.715500, -0.004909, 0.000554, 0.999811, 0.000460, -0.000884, -0.000923, -4.722219, -0.099554, 37.644497
2020-05-11 13:21:19.768254, -0.005405, -0.001033, 0.998472, -0.001220, -0.000426, -0.001381, -4.802530, -0.216942, 37.623043
2020-05-11 13:21:19.821088, -0.004350, -0.000300, 0.999263, -0.000151, -0.000731, 0.001520, -4.816379, -0.262063, 37.565201
2020-05-11 13:21:19.873853, -0.005095, 0.000737, 0.998655, -0.000914, -0.000425, -0.000312, -4.861058, -0.322555, 37.518929
2020-05-11 13:21:19.926679, -0.006211, 0.000615, 0.998715, -0.000761, 0.000643, -0.000465, -4.829601, -0.407540, 37.423801
2020-05-11 13:21:19.979439, -0.004288, 0.000310, 0.998168, -0.000608, -0.000120, 0.000757, -4.961236, -0.384047, 37.275059
2020-05-11 13:21:20.032226, -0.006211, 0.000066, 0.996829, -0.000150, -0.001342, 0.000757, -4.881743, -0.334759, 37.423374
2020-05-11 13:21:20.084987, -0.004040, -0.000422, 0.998959, -0.000914, -0.000273, 0.000146, -4.879749, -0.240439, 37.855824
2020-05-11 13:21:20.137772, -0.005281, 0.000615, 0.999324, -0.000608, 0.000491, -0.000465, -4.822154, -0.250367, 37.960625
2020-05-11 13:21:20.190501, -0.004350, 0.000493, 0.997802, 0.000766, -0.000731, -0.000007, -4.809678, -0.203419, 38.076427
2020-05-11 13:21:20.243281, -0.004164, -0.000239, 0.998898, -0.000913, -0.000425, -0.000465, -4.810897, -0.049985, 38.134201
2020-05-11 13:21:20.296388, -0.005281, 0.000737, 0.999141, -0.001371, 0.000949, 0.000757, -4.873473, 0.005677, 37.977036
2020-05-11 13:21:20.349183, -0.005529, -0.000422, 0.998107, -0.000913, -0.000425, 0.000909, -4.738733, -0.059573, 37.662441
2020-05-11 13:21:20.401941, -0.005033, 0.000310, 0.999750, -0.000607, -0.000273, 0.000909, -4.810142, -0.038587, 37.614155
2020-05-11 13:21:20.454721, -0.005281, -0.000728, 0.997802, -0.000455, 0.000338, -0.001229, -4.744068, -0.131576, 37.549377
2020-05-11 13:21:20.507547, -0.004846, -0.000117, 0.999385, -0.000913, 0.000033, 0.000298, -4.887209, -0.065695, 37.506271
2020-05-11 13:21:20.560339, -0.004846, -0.000178, 0.998715, -0.001065, -0.000273, 0.000604, -4.749722, -0.141066, 37.442730
2020-05-11 13:21:20.613071, -0.005529, 0.000493, 0.997924, -0.000302, 0.000186, 0.000451, -4.774132, -0.152571, 37.455818
2020-05-11 13:21:20.665859, -0.005281, 0.000554, 0.997316, 0.000157, 0.000491, -0.000313, -4.799261, -0.064195, 37.382030
2020-05-11 13:21:20.718605, -0.004412, 0.000371, 0.998715, -0.000760, -0.000883, 0.000298, -4.852963, -0.237446, 37.331715
2020-05-11 13:21:20.771391, -0.004846, 0.000493, 0.998289, -0.001065, 0.000644, 0.000451, -4.867926, -0.217478, 37.012531
2020-05-11 13:21:20.824121, -0.004536, -0.000056, 0.997498, -0.000301, 0.000033, -0.000771, -4.868695, -0.292985, 37.256935
2020-05-11 13:21:20.876932, -0.005219, 0.000005, 0.998533, 0.000615, -0.000273, 0.002283, -4.863711, -0.420478, 37.347858
2020-05-11 13:21:20.929661, -0.005839, 0.000799, 0.998594, -0.001523, -0.000273, 0.001672, -4.887723, -0.437089, 37.562969
2020-05-11 13:21:20.982470, -0.004660, 0.000493, 0.997620, -0.000606, -0.000425, 0.000298, -4.867733, -0.480872, 37.801884
2020-05-11 13:21:21.035240, -0.004909, 0.000615, 0.997924, 0.001226, -0.000578, 0.000145, -4.918941, -0.473207, 37.751858
2020-05-11 13:21:21.088026, -0.004536, 0.000615, 0.997133, -0.000759, 0.000491, 0.001214, -4.870308, -0.485371, 37.796097
2020-05-11 13:21:21.140760, -0.006273, -0.000239, 0.998594, -0.000912, -0.000272, 0.000450, -4.999402, -0.464608, 37.927372
2020-05-11 13:21:21.193545, -0.004536, 0.000005, 0.998959, 0.000768, -0.000883, 0.000908, -5.013076, -0.417504, 38.038200
2020-05-11 13:21:21.246356, -0.005033, 0.000188, 0.997072, -0.000148, -0.000730, 0.000603, -5.102416, -0.404216, 38.051323
2020-05-11 13:21:21.300930, -0.004971, 0.000860, 0.997863, -0.000454, 0.000797, 0.000450, -5.000287, -0.320400, 38.148987
2020-05-11 13:21:21.353686, -0.005157, -0.000422, 0.997559, -0.000301, -0.000272, -0.000161, -4.884984, -0.320434, 38.224209
2020-05-11 13:21:21.406497, -0.006583, 0.000310, 0.997863, -0.000912, 0.000186, 0.000450, -4.831943, -0.326560, 37.976402
2020-05-11 13:21:21.459231, -0.005529, -0.000178, 0.997742, -0.000453, -0.000425, -0.000925, -4.884709, -0.264374, 37.824646
2020-05-11 13:21:21.512030, -0.005343, -0.000728, 0.998107, -0.000911, 0.000186, -0.001077, -4.837322, -0.214625, 37.973454
2020-05-11 13:21:21.564807, -0.004598, 0.001104, 0.998228, 0.000310, 0.000033, 0.000603, -5.023413, -0.193123, 38.005337
2020-05-11 13:21:21.617731, -0.005963, 0.000127, 0.997559, -0.000301, 0.000033, -0.000008, -4.965085, -0.291797, 38.103481
2020-05-11 13:21:21.670517, -0.004350, 0.000493, 0.997255, 0.000310, 0.000644, -0.000924, -5.142423, -0.236564, 38.205238
2020-05-11 13:21:21.723237, -0.005963, 0.000127, 0.997863, -0.000606, 0.000033, 0.001061, -5.065893, -0.228970, 38.490032
2020-05-11 13:21:21.776015, -0.004164, 0.000371, 0.999020, 0.000921, 0.000033, 0.000144, -5.077469, -0.064326, 38.889294
2020-05-11 13:21:21.832334, -0.005405, -0.000056, 0.998289, -0.001217, -0.000272, 0.000144, -4.907530, -0.133872, 38.796116
2020-05-11 13:21:21.885180, -0.005591, -0.001094, 0.997316, -0.001217, -0.000272, -0.000466, -5.107579, -0.232199, 38.826176
2020-05-11 13:21:21.937992, -0.004474, 0.000005, 0.998533, -0.001064, 0.000033, -0.000314, -5.082818, -0.152292, 38.873466
2020-05-11 13:21:21.990781, -0.004598, -0.000117, 0.998655, -0.000758, -0.000272, -0.000924, -5.051809, -0.246936, 38.600407
2020-05-11 13:21:22.043867, -0.004909, 0.000615, 0.996768, 0.000311, 0.000186, 0.000450, -4.864602, -0.371440, 38.594063
2020-05-11 13:21:22.096706, -0.005591, 0.000860, 0.998107, -0.000453, 0.000033, 0.001213, -4.905237, -0.385661, 38.658722
2020-05-11 13:21:22.149513, -0.004909, -0.000422, 0.998168, 0.000769, -0.000120, -0.000008, -4.713744, -0.397038, 38.504154
2020-05-11 13:21:22.202251, -0.004226, -0.000361, 0.997985, -0.001674, 0.000186, 0.000908, -4.756550, -0.381744, 38.444424
2020-05-11 13:21:22.255045, -0.005467, -0.000178, 0.997742, 0.000158, -0.000578, 0.001518, -4.768394, -0.412201, 38.367584
2020-05-11 13:21:22.307840, -0.005343, -0.000300, 0.998046, 0.000311, 0.000186, -0.001536, -4.850670, -0.442665, 38.224758
2020-05-11 13:21:22.360639, -0.003296, -0.000483, 0.997742, 0.000311, -0.000425, 0.000144, -4.832491, -0.424345, 38.366184
2020-05-11 13:21:22.413370, -0.004536, -0.000117, 0.998776, -0.000758, 0.000339, -0.000161, -5.036347, -0.360898, 38.322426
2020-05-11 13:21:22.466190, -0.004350, 0.000676, 0.998837, -0.001674, -0.000578, 0.000908, -5.065033, -0.468709, 38.136330
2020-05-11 13:21:22.518960, -0.005033, 0.000127, 0.998655, -0.001674, -0.000119, 0.000908, -4.998381, -0.402489, 38.330307
2020-05-11 13:21:22.571753, -0.004660, 0.000799, 0.999324, -0.000146, -0.000425, 0.000602, -4.911459, -0.312920, 38.113583
2020-05-11 13:21:22.624475, -0.005901, 0.001287, 0.998837, -0.000605, 0.000033, -0.000009, -4.998722, -0.247363, 37.838509
2020-05-11 13:21:22.677284, -0.004909, 0.000371, 0.997802, -0.001062, 0.000644, 0.000144, -4.816532, -0.255906, 37.644596
2020-05-11 13:21:22.730009, -0.006397, -0.000117, 0.997133, 0.000923, 0.000186, -0.000162, -4.928380, -0.317629, 37.689949
2020-05-11 13:21:22.782945, -0.005777, -0.000300, 0.998168, -0.000757, -0.000119, 0.000144, -4.855459, -0.281624, 37.668121
2020-05-11 13:21:22.835838, -0.004350, 0.000676, 0.998289, -0.000604, -0.000730, -0.000772, -4.802722, -0.222327, 37.720390
2020-05-11 13:21:22.888645, -0.005591, 0.000005, 0.999628, -0.001520, -0.000730, -0.000314, -4.788532, -0.272469, 37.582066
2020-05-11 13:21:22.941374, -0.005591, 0.000066, 0.998837, -0.000146, 0.000034, 0.000602, -4.782781, -0.318682, 37.619587
2020-05-11 13:21:22.994183, -0.004784, 0.000493, 0.999020, -0.000604, 0.000034, -0.000009, -4.632579, -0.288566, 37.402634
2020-05-11 13:21:23.046979, -0.004598, 0.000249, 0.998959, 0.000618, 0.000186, -0.000620, -4.490018, -0.240078, 37.618412
2020-05-11 13:21:23.099851, -0.004412, 0.000737, 0.999020, -0.000451, -0.000272, -0.000314, -4.622370, -0.115904, 37.436562
2020-05-11 13:21:23.152609, -0.004971, -0.000056, 0.999750, -0.001062, -0.000577, 0.000449, -4.644251, -0.108047, 37.654270
2020-05-11 13:21:23.205482, -0.005529, 0.000188, 0.998837, 0.000160, -0.000272, -0.000009, -4.633755, -0.034675, 38.031822
2020-05-11 13:21:23.258233, -0.005591, 0.000432, 0.999811, 0.000160, -0.001035, 0.000755, -4.608559, 0.133801, 38.281567
2020-05-11 13:21:23.311077, -0.004846, -0.000728, 0.998715, 0.000160, -0.000424, -0.000925, -4.762002, 0.018532, 38.187904
2020-05-11 13:21:23.363850, -0.004474, 0.000554, 1.001637, -0.000756, 0.000034, 0.000602, -4.733556, 0.097082, 38.450016
2020-05-11 13:21:23.416700, -0.005839, -0.000422, 0.999141, -0.000909, 0.000645, -0.000314, -4.598800, -0.053535, 38.386585
2020-05-11 13:21:23.469466, -0.004722, -0.001033, 0.999020, -0.001367, 0.000492, -0.000619, -4.614195, 0.045528, 38.376518
2020-05-11 13:21:23.522334, -0.006149, -0.001216, 0.998959, 0.000618, 0.000492, -0.000619, -4.564911, -0.052087, 38.295826
2020-05-11 13:21:23.575135, -0.005281, 0.000005, 1.000115, 0.000618, 0.000186, -0.000314, -4.581484, -0.026499, 38.306816
2020-05-11 13:21:23.627918, -0.005219, -0.000483, 0.999689, 0.000465, 0.000797, -0.000161, -4.605942, -0.103610, 38.321419
2020-05-11 13:21:23.680665, -0.004909, 0.000615, 0.998959, -0.001214, -0.000272, 0.000144, -4.647908, -0.262879, 38.059982
2020-05-11 13:21:23.733449, -0.005157, -0.000178, 0.999081, 0.000007, -0.000883, -0.001383, -4.603081, -0.256121, 38.196590
2020-05-11 13:21:23.786391, -0.006211, 0.000493, 1.001332, -0.001061, -0.000577, -0.000772, -4.556020, -0.269010, 38.285538
2020-05-11 13:21:23.839190, -0.003730, 0.001104, 0.999567, 0.001076, 0.000339, 0.000755, -4.372770, -0.401298, 38.121349
2020-05-11 13:21:23.891950, -0.004784, 0.000310, 1.000054, 0.000466, -0.000882, 0.001061, -4.522971, -0.318066, 38.056824
2020-05-11 13:21:23.944776, -0.004474, 0.000066, 1.000237, 0.000160, 0.000492, -0.001993, -4.486332, -0.288073, 38.234741
2020-05-11 13:21:23.997540, -0.005095, 0.000188, 1.000480, 0.000007, -0.000882, 0.000755, -4.529820, -0.361659, 38.191120
2020-05-11 13:21:24.050358, -0.004040, 0.000860, 0.999263, -0.000145, -0.000271, 0.001671, -4.631811, -0.280256, 38.185280
2020-05-11 13:21:24.103120, -0.004350, 0.000066, 0.999750, -0.000145, 0.000339, 0.000297, -4.696604, -0.361504, 38.267773
2020-05-11 13:21:24.155955, -0.005715, -0.000117, 1.000054, -0.000145, -0.000271, -0.001230, -4.731638, -0.371613, 38.319241
2020-05-11 13:21:24.208751, -0.004660, 0.000005, 0.999933, 0.000771, -0.000271, -0.000466, -4.714865, -0.349207, 38.279060
2020-05-11 13:21:24.261565, -0.005281, 0.000310, 1.000298, -0.000145, -0.000729, 0.000603, -4.617447, -0.434961, 38.046432
2020-05-11 13:21:24.314332, -0.005157, -0.000117, 1.000845, 0.000007, -0.000271, -0.000314, -4.707512, -0.527960, 38.028851
2020-05-11 13:21:24.367169, -0.004846, -0.000178, 1.000724, -0.001520, -0.000271, 0.000755, -4.885965, -0.523075, 37.709705
2020-05-11 13:21:24.419938, -0.005467, 0.000249, 1.001089, -0.000298, -0.000118, 0.000297, -4.950327, -0.458178, 37.712982
2020-05-11 13:21:24.472759, -0.005281, -0.000117, 1.000419, 0.000466, 0.000187, -0.000467, -4.951416, -0.461151, 37.738846
2020-05-11 13:21:24.525569, -0.005963, 0.000676, 1.000845, 0.000313, -0.000882, -0.000161, -4.957888, -0.481825, 37.713051
2020-05-11 13:21:24.578404, -0.004598, -0.000117, 1.001089, -0.000298, 0.000951, 0.000297, -4.856665, -0.504463, 37.323410
2020-05-11 13:21:24.631193, -0.005405, -0.000544, 1.000298, -0.001519, 0.000798, 0.000297, -4.887686, -0.424993, 37.453339
2020-05-11 13:21:24.684014, -0.005591, -0.000483, 1.002063, 0.000619, -0.000119, -0.002452, -4.772504, -0.562676, 37.321934
2020-05-11 13:21:24.736802, -0.005281, -0.000300, 1.000785, -0.001061, 0.000798, 0.000755, -4.909958, -0.538650, 37.460876
2020-05-11 13:21:24.789619, -0.004288, 0.000737, 0.999872, -0.000450, -0.001035, -0.000008, -4.767921, -0.647504, 37.537163
2020-05-11 13:21:24.842390, -0.005405, -0.000178, 1.000176, -0.001214, -0.000882, 0.002129, -4.755092, -0.752883, 37.580757
2020-05-11 13:21:24.895242, -0.004722, -0.000117, 1.000541, 0.000924, -0.000271, 0.000755, -4.683228, -0.684717, 37.583672
2020-05-11 13:21:24.948015, -0.005343, 0.001348, 1.000176, -0.000450, -0.000271, -0.000161, -4.670538, -0.666776, 37.937572
2020-05-11 13:21:25.000830, -0.004784, 0.000127, 1.000541, 0.001382, 0.000187, 0.000908, -4.604385, -0.585337, 37.840069
2020-05-11 13:21:25.053566, -0.004909, -0.000178, 1.000480, -0.000756, -0.000424, 0.000907, -4.613063, -0.526285, 37.741730
2020-05-11 13:21:25.106455, -0.005715, 0.000310, 0.999933, 0.001535, 0.000645, 0.000449, -4.659205, -0.564426, 37.634003
2020-05-11 13:21:25.159234, -0.005157, 0.000432, 1.000845, -0.000908, -0.000271, 0.002434, -4.662519, -0.491259, 37.437412
2020-05-11 13:21:25.212073, -0.004909, 0.000371, 1.000115, 0.001382, -0.000882, 0.001670, -4.637170, -0.451023, 37.518391
2020-05-11 13:21:25.264861, -0.004722, 0.000127, 1.000480, 0.000618, -0.000729, -0.000773, -4.740091, -0.559105, 37.315865
2020-05-11 13:21:25.317726, -0.005467, -0.000483, 1.000845, -0.001061, -0.000729, 0.000143, -4.548028, -0.639473, 37.226482
2020-05-11 13:21:25.370467, -0.004536, 0.000371, 1.001150, -0.001825, -0.000729, 0.000754, -4.551177, -0.581791, 37.247955
2020-05-11 13:21:25.423303, -0.005839, -0.000239, 0.999993, -0.000297, -0.001034, -0.000315, -4.312896, -0.505151, 37.238983
2020-05-11 13:21:25.476078, -0.005405, -0.000117, 1.000906, -0.000297, 0.000340, -0.000773, -4.503072, -0.498729, 37.661823
2020-05-11 13:21:25.528896, -0.004536, 0.000615, 0.999872, 0.000619, -0.000118, 0.000296, -4.548812, -0.408208, 37.511967
2020-05-11 13:21:25.581972, -0.004598, 0.000860, 1.001211, -0.000297, -0.001492, 0.000296, -4.607805, -0.476063, 37.656483
2020-05-11 13:21:25.634841, -0.003978, 0.000249, 1.001089, 0.000924, 0.000341, 0.000601, -4.660599, -0.597434, 37.539654
2020-05-11 13:21:25.687623, -0.005281, 0.000249, 1.000845, 0.000008, -0.000423, 0.000296, -4.630033, -0.535962, 37.940132
2020-05-11 13:21:25.740437, -0.004722, 0.000310, 1.001332, 0.000161, 0.000188, 0.000448, -4.588781, -0.578267, 37.879890
2020-05-11 13:21:25.793238, -0.005281, -0.000300, 1.000237, -0.001366, 0.000799, -0.000468, -4.438180, -0.514529, 38.026367
2020-05-11 13:21:25.846073, -0.005343, 0.000249, 1.000967, 0.000772, 0.000188, -0.001079, -4.440899, -0.555022, 38.160980
2020-05-11 13:21:25.898823, -0.004784, 0.000432, 0.999263, 0.000161, 0.000035, 0.000143, -4.448674, -0.550823, 38.050758
2020-05-11 13:21:25.951647, -0.005095, 0.000005, 1.000176, -0.000603, -0.001186, 0.000601, -4.499694, -0.510871, 38.084614
2020-05-11 13:21:26.004456, -0.005467, 0.000615, 0.999202, 0.000008, 0.000951, -0.000468, -4.585310, -0.454514, 38.230824
2020-05-11 13:21:26.057283, -0.004784, -0.000422, 0.999446, 0.000161, -0.000423, 0.000296, -4.497003, -0.403330, 38.039806
2020-05-11 13:21:26.110041, -0.005839, -0.000117, 0.999933, -0.000297, -0.000423, -0.000620, -4.510357, -0.539247, 38.209503
2020-05-11 13:21:26.162857, -0.004846, 0.000066, 1.000541, 0.000772, -0.001186, -0.001078, -4.465040, -0.580895, 38.130253
2020-05-11 13:21:26.215690, -0.005839, 0.000066, 1.000358, 0.000313, 0.001410, -0.000315, -4.585587, -0.614213, 38.058136
2020-05-11 13:21:26.268522, -0.005157, -0.000728, 0.999141, -0.000145, -0.001492, -0.000162, -4.362824, -0.494496, 38.038216
2020-05-11 13:21:26.321266, -0.004536, 0.000432, 0.998655, -0.000756, -0.001033, 0.000296, -4.285414, -0.313340, 38.057144
2020-05-11 13:21:26.374122, -0.005157, 0.000066, 1.000237, 0.000619, 0.000494, 0.000907, -4.240286, -0.229403, 38.386086
2020-05-11 13:21:26.426918, -0.004722, 0.000005, 0.999811, 0.000313, 0.000036, -0.000468, -4.232183, -0.333019, 38.178543
2020-05-11 13:21:26.479766, -0.003978, 0.000127, 0.999567, -0.000145, -0.000117, -0.000162, -4.444101, -0.391517, 38.326305
2020-05-11 13:21:26.532546, -0.005281, -0.000300, 0.998594, -0.000450, -0.000423, 0.000601, -4.468036, -0.359031, 38.421268
2020-05-11 13:21:26.585366, -0.004598, 0.000310, 0.999507, 0.001077, 0.000952, 0.000449, -4.442383, -0.272054, 38.471092
2020-05-11 13:21:26.638137, -0.004164, -0.000789, 1.000541, -0.000756, 0.000341, -0.001384, -4.349061, -0.312252, 38.693996
2020-05-11 13:21:26.690951, -0.004722, 0.000127, 0.998776, -0.000756, -0.000728, 0.000143, -4.274404, -0.362705, 38.311554
2020-05-11 13:21:26.743706, -0.005281, -0.000483, 0.998350, -0.000908, 0.000188, 0.000907, -4.326678, -0.305488, 38.328114
2020-05-11 13:21:26.796540, -0.005281, 0.000005, 0.998350, 0.000619, 0.000341, 0.001517, -4.385297, -0.338998, 38.164124
2020-05-11 13:21:26.849341, -0.004474, 0.000249, 0.998411, 0.000008, -0.000728, 0.000601, -4.409792, -0.091362, 38.125912
2020-05-11 13:21:26.902165, -0.004722, 0.000005, 0.997985, -0.000297, -0.000881, -0.000010, -4.390189, -0.222586, 38.098248
2020-05-11 13:21:26.954990, -0.004660, 0.000676, 0.998655, -0.000145, 0.000952, -0.001079, -4.357706, -0.217788, 38.174904
2020-05-11 13:21:27.007828, -0.004846, -0.000117, 0.998472, -0.000145, -0.000270, -0.000926, -4.242120, -0.213949, 38.146156
2020-05-11 13:21:27.060584, -0.004722, -0.000911, 0.998533, 0.000772, -0.000728, 0.000143, -4.340051, -0.381644, 38.030182
2020-05-11 13:21:27.113417, -0.004226, 0.000737, 0.998594, -0.000603, -0.000880, 0.000754, -4.239195, -0.412120, 37.943214
2020-05-11 13:21:27.166220, -0.004040, -0.000667, 0.998715, 0.000008, -0.000117, -0.000315, -4.236911, -0.387711, 38.178719
2020-05-11 13:21:27.219043, -0.005095, 0.000737, 0.999446, -0.000145, -0.000728, -0.000620, -4.307884, -0.441370, 38.192791
2020-05-11 13:21:27.271808, -0.004598, -0.000239, 0.998898, 0.000466, 0.000341, 0.000143, -4.364662, -0.533087, 38.233105
2020-05-11 13:21:27.330127, -0.004846, 0.000371, 0.998350, 0.000466, 0.000189, -0.001078, -4.410084, -0.447892, 38.154945
2020-05-11 13:21:27.382908, -0.005963, 0.000310, 0.998350, 0.000619, -0.001491, -0.000315, -4.440822, -0.495613, 38.118568
2020-05-11 13:21:27.435709, -0.004102, -0.000056, 0.997376, -0.000297, -0.000117, 0.001059, -4.431812, -0.466703, 38.156292
2020-05-11 13:21:27.488480, -0.005467, 0.000188, 0.999141, 0.000924, -0.000880, 0.000296, -4.452604, -0.425278, 38.334656
2020-05-11 13:21:27.541263, -0.005219, 0.000982, 0.999750, 0.001077, -0.000269, -0.000620, -4.575638, -0.227472, 38.297203
2020-05-11 13:21:27.594016, -0.005343, 0.000005, 0.998655, -0.002130, -0.000880, 0.000296, -4.612465, -0.142412, 38.104530
2020-05-11 13:21:27.646835, -0.005219, -0.000544, 0.999446, -0.000145, 0.000189, 0.001365, -4.479527, -0.251229, 38.182835
2020-05-11 13:21:27.699630, -0.004846, -0.000544, 0.999507, -0.000297, -0.000422, 0.000296, -4.613976, -0.344381, 38.155407
2020-05-11 13:21:27.752423, -0.004288, 0.000432, 0.999567, -0.000755, -0.000116, -0.000468, -4.615136, -0.418903, 38.342663
2020-05-11 13:21:27.805192, -0.005777, -0.001094, 0.999446, 0.000008, -0.000574, 0.000143, -4.616064, -0.210174, 38.257118
2020-05-11 13:21:27.857969, -0.004722, -0.000422, 0.999263, 0.001382, 0.000037, -0.000315, -4.656006, -0.268846, 37.994015
2020-05-11 13:21:27.910744, -0.004288, -0.000544, 0.999689, 0.000771, 0.000342, -0.000468, -4.581560, -0.291388, 38.219360
2020-05-11 13:21:27.963541, -0.005033, -0.000972, 0.998776, 0.001382, 0.000037, -0.000162, -4.566803, -0.254533, 37.894073
2020-05-11 13:21:28.016340, -0.005529, -0.000483, 0.999202, -0.001519, -0.001643, 0.000754, -4.588597, -0.462901, 37.764595
2020-05-11 13:21:28.069129, -0.004909, -0.000667, 0.999385, -0.001519, 0.000495, 0.000906, -4.426832, -0.519818, 37.736553
2020-05-11 13:21:28.121866, -0.006149, -0.000300, 0.999324, 0.000161, 0.000800, 0.001670, -4.555021, -0.656833, 37.676350
2020-05-11 13:21:28.174648, -0.006273, -0.000911, 0.999324, -0.000603, -0.000574, 0.001059, -4.657572, -0.705457, 37.636902
2020-05-11 13:21:28.227435, -0.005343, -0.001094, 0.998776, 0.000008, 0.000037, -0.000010, -4.678012, -0.561393, 37.724472
2020-05-11 13:21:28.280230, -0.004846, -0.000911, 0.999324, -0.000144, 0.000189, -0.000163, -4.559965, -0.494932, 37.716080
2020-05-11 13:21:28.332995, -0.005777, 0.000310, 0.999324, -0.000908, -0.001032, 0.001975, -4.633526, -0.533245, 38.011539
2020-05-11 13:21:28.385799, -0.004971, 0.000432, 0.998472, 0.000314, 0.001106, 0.000906, -4.591576, -0.630982, 38.050331
2020-05-11 13:21:28.438560, -0.005467, -0.000239, 1.000419, -0.000297, -0.000727, -0.000011, -4.642015, -0.605492, 38.066837
2020-05-11 13:21:28.491362, -0.005901, -0.000483, 1.001332, -0.000297, -0.001032, 0.000600, -4.458367, -0.658285, 38.077137
2020-05-11 13:21:28.544150, -0.005157, -0.000361, 0.999324, 0.000466, 0.000495, -0.000164, -4.608248, -0.609039, 37.884895
2020-05-11 13:21:28.596959, -0.004474, -0.000117, 1.000602, 0.000161, -0.000574, 0.000753, -4.683353, -0.587938, 37.969357
2020-05-11 13:21:28.649765, -0.006087, -0.000300, 0.999202, 0.001383, 0.000037, -0.001233, -4.743437, -0.595452, 37.999153
2020-05-11 13:21:28.702576, -0.004784, -0.000117, 0.999324, -0.000450, 0.000190, 0.000600, -4.819505, -0.595365, 37.932919
2020-05-11 13:21:28.755379, -0.004722, 0.000066, 0.999811, -0.000297, 0.000648, -0.000164, -4.712358, -0.534307, 38.121090
2020-05-11 13:21:28.808178, -0.004598, 0.000860, 0.999628, 0.001077, -0.000116, -0.001232, -4.738642, -0.509856, 37.981071
2020-05-11 13:21:28.860925, -0.004536, -0.000422, 0.999324, -0.000450, 0.000648, -0.000621, -4.770868, -0.532986, 37.871964
2020-05-11 13:21:28.913735, -0.004412, 0.000676, 0.998533, -0.000297, -0.000727, 0.000600, -4.679049, -0.569787, 37.590008
2020-05-11 13:21:28.966556, -0.004784, 0.000005, 0.998837, -0.000603, -0.000116, 0.001211, -4.784794, -0.574833, 37.573639
2020-05-11 13:21:29.019355, -0.004412, 0.001165, 0.999446, -0.000144, -0.000727, 0.000295, -4.751791, -0.572770, 37.705822
2020-05-11 13:21:29.072306, -0.005157, 0.000432, 0.999385, -0.000297, 0.000037, 0.001211, -4.814987, -0.619910, 37.509392
2020-05-11 13:21:29.125250, -0.004102, -0.000178, 0.998533, -0.000297, 0.000037, 0.000294, -4.966345, -0.596635, 37.546921
2020-05-11 13:21:29.178051, -0.004846, 0.000432, 0.999141, -0.000144, -0.000574, 0.000447, -4.953031, -0.699990, 37.414234
2020-05-11 13:21:29.230856, -0.006459, 0.000493, 0.997681, -0.001213, 0.000495, 0.000141, -4.936779, -0.563119, 37.348763
2020-05-11 13:21:29.283594, -0.004474, 0.000737, 0.998350, -0.000602, 0.000342, 0.000141, -4.923778, -0.593893, 37.511395
2020-05-11 13:21:29.336385, -0.005777, 0.000127, 0.997985, -0.000297, 0.000953, -0.000469, -4.605377, -0.551426, 37.749004
2020-05-11 13:21:29.389168, -0.004784, -0.000361, 0.998289, -0.000449, 0.001564, -0.000469, -4.636257, -0.413772, 37.718269
2020-05-11 13:21:29.442015, -0.006149, 0.000005, 0.999567, 0.001078, 0.000037, -0.000622, -4.716960, -0.462218, 37.775040
2020-05-11 13:21:29.494804, -0.004909, 0.000554, 0.999202, -0.001366, -0.000116, 0.001516, -4.753523, -0.433889, 37.739098
