Time, AccX, AccY, AccZ, GyrX, GyrY, GyrZ, Mag(1), Mag(2), Mag(3)
2020-05-11 13:24:25.570001, -0.004350, -1.012826, -0.026627, 0.015270, 0.001389, 0.000611, 0.655245, -5.632301, -3.780525
2020-05-11 13:24:25.622837, -0.005343, -1.031073, -0.031048, -0.015207, 0.000014, -0.014467, 1.089841, -10.113747, -6.630614
2020-05-11 13:24:25.675601, -0.003234, -1.020100, -0.021177, -0.057364, 0.001195, -0.000551, 1.325518, -13.826978, -9.241915
2020-05-11 13:24:25.728374, -0.005529, -1.027806, -0.025598, -0.002159, 0.000859, 0.000648, 1.542060, -16.760969, -11.153718
2020-05-11 13:24:25.781187, -0.002428, -1.016895, -0.021237, 0.017842, 0.002012, -0.000407, 1.726493, -19.193546, -12.918509
2020-05-11 13:24:25.833924, -0.005901, -1.029964, -0.029958, 0.063897, 0.000616, -0.005855, 1.812440, -21.084719, -14.481428
2020-05-11 13:24:25.886717, -0.004722, -1.019607, -0.028202, 0.044495, 0.000153, -0.001379, 1.802797, -22.475681, -15.449928
2020-05-11 13:24:25.939456, -0.003420, -1.026758, -0.032986, -0.005262, 0.001181, -0.002219, 2.013483, -23.728722, -16.474604
2020-05-11 13:24:25.992269, -0.000505, -1.010237, -0.019542, -0.028116, -0.000777, 0.004646, 2.047632, -24.798241, -17.096767
2020-05-11 13:24:26.045004, -0.000443, -1.029532, -0.029897, 0.084722, 0.001315, -0.008205, 2.097351, -25.568474, -17.510239
2020-05-11 13:24:26.097789, -0.007823, -1.052156, -0.032441, 0.250724, -0.000670, -0.029432, 2.103526, -26.080980, -18.111229
2020-05-11 13:24:26.150592, -0.023079, -1.017819, -0.027536, 0.392903, -0.000365, -0.269502, 2.326866, -26.527578, -18.714054
2020-05-11 13:24:26.203413, 0.000053, -1.011223, -0.035408, -0.074256, 0.001010, 0.269892, 2.343138, -26.805574, -19.033604
2020-05-11 13:24:26.256295, -0.005653, -1.024354, -0.110927, -0.203607, -0.004335, 0.002180, 2.440156, -27.009674, -19.472292
2020-05-11 13:24:26.309144, 0.000053, -0.997538, -0.003251, -0.564475, -0.016705, 0.006151, 2.366570, -27.209545, -19.788376
2020-05-11 13:24:26.362085, -0.005777, -1.026142, -0.036075, -0.025426, -0.002272, -0.022399, 2.442101, -27.552406, -19.660620
2020-05-11 13:24:26.414871, -0.006397, -1.026203, -0.029958, 0.097508, 0.005776, -0.018552, 2.502526, -27.857189, -19.822817
2020-05-11 13:24:26.467630, -0.006025, -1.018436, -0.042857, 0.099572, 0.015031, -0.014981, 2.259666, -27.985138, -19.804394
2020-05-11 13:24:26.520324, -0.011606, -1.036066, -0.050246, -0.020667, -0.002594, -0.004295, 2.216578, -27.989918, -20.025003
2020-05-11 13:24:26.573074, -0.006149, -1.019669, -0.049882, -0.079766, -0.001179, 0.021092, 2.081308, -28.195002, -19.844110
2020-05-11 13:24:26.625943, -0.002118, -1.015354, -0.031714, -0.271425, -0.013091, 0.008722, 2.101891, -28.237093, -19.928932
2020-05-11 13:24:26.678710, -0.003358, -1.012148, -0.023539, -0.342744, -0.024392, -0.013117, 2.084758, -28.423235, -19.778875
2020-05-11 13:24:26.731523, -0.008940, -1.052649, -0.007853, -0.347478, -0.019811, -0.007619, 2.127052, -28.505062, -19.577477
2020-05-11 13:24:26.784283, -0.006397, -1.009621, 0.045309, -0.414826, 0.020812, 0.019259, 1.959287, -28.662004, -19.311758
2020-05-11 13:24:26.837101, -0.004350, -1.014059, 0.045552, -0.111357, 0.002551, 0.001345, 2.009875, -28.793657, -19.221214
2020-05-11 13:24:26.889851, -0.007327, -1.033724, 0.026930, 0.028762, -0.000339, -0.018334, 1.977545, -28.825794, -18.991882
2020-05-11 13:24:26.942663, -0.010552, -1.028916, 0.019505, -0.012056, 0.000853, 0.007226, 2.192481, -28.973480, -18.814228
2020-05-11 13:24:26.995442, -0.008443, -1.019915, 0.075373, -0.240825, 0.012612, 0.001270, 2.258030, -29.006247, -18.672104
2020-05-11 13:24:27.048286, -0.006955, -1.024600, 0.032468, -0.011064, -0.000947, 0.003294, 2.192870, -29.008064, -18.555498
2020-05-11 13:24:27.101039, -0.007947, -1.022751, 0.035937, -0.008923, -0.000768, -0.004935, 2.174341, -28.979025, -18.441875
2020-05-11 13:24:27.153809, -0.008940, -1.026388, 0.032590, 0.002594, -0.001185, -0.001227, 2.159518, -28.943596, -18.481726
2020-05-11 13:24:27.206577, -0.021033, -1.024107, 0.011593, -0.008417, 0.000479, -0.008863, 2.209260, -29.201895, -18.193998
2020-05-11 13:24:27.259419, -0.018180, -0.934537, 0.094117, -0.056370, 0.000937, 0.025956, 2.221053, -29.335348, -18.106188
2020-05-11 13:24:27.312247, -0.007327, -0.966777, 0.060950, 0.015483, -0.001604, -0.025987, 2.247288, -29.301840, -17.704708
2020-05-11 13:24:27.365044, -0.017126, -1.070526, 0.035146, -0.029568, -0.005422, -0.015908, 2.161875, -29.207947, -17.537518
2020-05-11 13:24:27.417799, -0.003730, -0.998956, 0.042266, -0.028804, -0.001146, 0.018606, 2.188745, -29.254807, -17.435726
2020-05-11 13:24:27.470628, -0.006645, -1.017450, 0.050969, 0.020282, -0.001108, -0.017887, 2.204642, -29.292295, -17.461798
2020-05-11 13:24:27.523346, -0.011296, -1.034464, 0.030581, 0.010896, -0.000480, -0.008581, 2.088559, -29.352779, -17.569820
2020-05-11 13:24:27.576188, -0.007575, -1.022998, 0.040014, -0.017073, -0.000317, 0.005286, 2.074092, -29.199907, -17.316292
2020-05-11 13:24:27.629047, -0.006583, -1.015292, 0.030155, 0.039446, 0.000580, 0.004520, 2.012119, -29.089808, -17.398211
2020-05-11 13:24:27.681839, -0.009312, -1.016525, 0.039345, 0.001815, -0.003130, -0.008770, 2.136140, -29.062716, -17.292320
2020-05-11 13:24:27.734620, -0.011606, -1.037361, 0.033685, 0.013860, -0.000516, -0.013054, 2.173758, -28.980053, -17.349977
2020-05-11 13:24:27.787525, -0.010428, -1.027683, 0.033381, -0.019080, 0.002158, 0.011740, 2.450251, -29.078590, -17.489080
2020-05-11 13:24:27.840306, -0.005591, -1.001853, 0.040136, -0.034535, 0.000757, 0.017844, 2.413846, -29.078136, -17.080275
2020-05-11 13:24:27.893105, -0.007823, -1.031751, 0.035511, -0.012716, -0.000301, 0.000420, 2.328722, -28.974094, -17.299469
2020-05-11 13:24:27.945837, -0.010614, -1.034094, 0.026199, -0.055399, 0.001480, 0.007639, 2.311023, -29.000639, -17.315020
2020-05-11 13:24:27.998649, -0.008257, -1.011162, 0.051090, -0.085292, -0.000931, 0.010337, 2.358464, -29.082861, -17.307121
2020-05-11 13:24:28.051401, -0.089251, -1.017511, 0.057663, -0.031688, 0.007774, 0.002854, 2.323616, -29.087652, -17.114849
2020-05-11 13:24:28.104197, -0.083856, -1.042662, 0.034537, 0.049824, -0.009167, -0.006541, 2.295738, -29.256151, -17.170229
2020-05-11 13:24:28.156974, -0.001498, -1.010237, 0.036728, 0.004009, 0.015268, 0.010563, 2.312636, -29.110407, -16.958847
2020-05-11 13:24:28.209745, -0.069902, -1.040813, 0.052429, 0.007369, -0.003364, -0.010665, 2.499754, -29.127985, -16.998940
2020-05-11 13:24:28.262480, -0.043545, -1.007586, 0.050664, -0.015611, 0.004425, 0.015378, 2.587848, -29.160343, -17.106558
2020-05-11 13:24:28.315323, -0.019110, -1.038224, 0.049691, 0.011039, -0.007385, -0.007574, 2.792724, -29.271612, -17.183935
2020-05-11 13:24:28.368061, -0.090492, -1.009682, 0.054864, -0.013396, 0.018119, 0.013806, 2.917425, -29.269146, -17.367870
2020-05-11 13:24:28.420896, 0.013148, -1.041430, 0.015914, 0.000807, -0.015937, 0.003421, 3.140385, -29.218384, -17.416229
2020-05-11 13:24:28.473670, -0.056320, -1.001114, 0.030460, -0.017672, 0.026671, 0.026634, 3.503553, -29.013105, -17.524649
2020-05-11 13:24:28.526568, -0.063949, -1.007525, 0.058576, 0.011409, -0.004629, 0.023680, 4.174888, -28.854982, -17.625912
2020-05-11 13:24:28.579346, -0.040692, -1.033970, 0.091805, -0.039459, 0.022393, -0.006192, 4.577556, -28.813868, -17.422182
2020-05-11 13:24:28.632115, -0.108787, -1.013812, 0.135379, -0.021439, -0.012732, 0.016105, 5.241290, -28.811470, -17.500357
2020-05-11 13:24:28.684920, -0.061778, -1.000251, 0.067461, -0.022508, 0.004831, 0.009538, 5.828277, -28.937626, -17.289776
2020-05-11 13:24:28.737705, -0.051793, -1.014614, 0.125642, -0.011207, 0.005594, 0.008927, 6.381867, -29.544748, -17.330509
2020-05-11 13:24:28.790443, -0.004846, -1.027251, 0.053403, -0.008305, 0.027738, 0.002971, 6.735139, -30.500053, -17.334042
2020-05-11 13:24:28.843232, 0.107370, -1.053697, -0.047460, 0.001621, 0.009412, 0.003735, 7.163356, -31.575335, -16.999826
2020-05-11 13:24:28.895974, 0.053047, -1.036868, -0.002706, -0.080693, 0.002998, 0.012592, 7.108330, -32.984451, -16.360546
2020-05-11 13:24:28.948772, -0.003482, -1.014429, 0.019627, -0.259371, -0.003722, 0.002818, 7.053110, -34.605747, -15.971154
2020-05-11 13:24:29.001481, 0.059614, -0.994271, -0.024084, -0.123606, 0.037665, 0.002513, 6.740133, -35.975967, -15.665452
2020-05-11 13:24:29.054371, 0.038376, -1.042046, 0.048595, 0.059195, -0.019604, 0.003735, 6.444952, -37.047749, -15.653332
2020-05-11 13:24:29.107133, 0.026529, -1.019915, 0.095456, -0.008458, 0.019186, 0.002360, 5.783206, -38.240604, -15.498360
2020-05-11 13:24:29.159911, 0.039726, -1.068492, -0.087127, 0.318508, -0.024033, -0.004970, 5.337811, -39.127804, -15.510942
2020-05-11 13:24:29.212683, -0.054336, -1.013381, 0.098317, -0.006014, 0.025142, 0.005873, 4.751894, -39.831467, -15.651756
2020-05-11 13:24:29.265483, -0.014707, -1.015785, 0.121808, 0.002010, -0.000645, -0.002000, 4.204760, -40.351704, -15.555210
2020-05-11 13:24:29.318225, -0.039948, -1.015230, 0.064358, 0.000025, 0.017070, 0.003040, 3.638253, -40.767891, -15.597099
2020-05-11 13:24:29.370998, -0.001125, -1.006230, 0.073547, 0.003419, 0.020782, 0.001905, 3.521048, -41.070351, -15.854336
2020-05-11 13:24:29.423760, 0.021741, -1.025340, 0.044092, -0.002452, -0.007074, 0.004351, 3.192084, -41.233032, -15.946811
2020-05-11 13:24:29.476593, -0.056817, -1.023676, 0.028877, -0.001383, 0.001479, 0.002824, 2.962512, -41.375374, -15.858081
2020-05-11 13:24:29.529341, 0.057343, -1.003209, 0.014941, 0.004268, -0.001729, 0.001450, 2.756455, -41.464855, -15.792908
2020-05-11 13:24:29.582137, 0.018979, -1.017696, 0.053342, 0.008238, -0.035021, 0.003130, 2.681209, -41.658413, -15.578060
2020-05-11 13:24:29.634861, 0.060781, -1.026080, 0.029729, 0.008111, -0.005066, 0.007749, 2.677013, -42.057213, -16.062830
2020-05-11 13:24:29.687682, 0.018120, -1.039950, 0.046952, -0.001460, -0.017446, 0.004982, 2.679255, -42.736080, -16.255976
2020-05-11 13:24:29.740489, -0.016878, -1.041245, 0.038067, -0.009530, 0.012071, 0.000091, 2.434650, -43.376755, -16.332043
2020-05-11 13:24:29.793273, -0.004598, -1.050553, 0.053586, -0.005965, 0.010487, 0.000974, 2.110165, -43.931984, -16.448101
2020-05-11 13:24:29.846092, 0.017751, -0.996922, 0.010498, -0.009325, -0.019598, -0.000248, 1.665777, -44.516441, -16.540949
2020-05-11 13:24:29.898934, 0.117130, -1.022011, 0.009346, -0.001536, -0.009671, 0.000974, 1.360667, -44.959610, -16.684959
2020-05-11 13:24:29.951676, 0.082756, -1.046423, 0.013297, -0.006799, 0.010581, -0.000682, 0.942979, -45.186073, -17.061665
2020-05-11 13:24:30.004501, 0.063420, -1.012025, 0.040136, 0.003318, -0.012359, 0.005836, 0.709628, -45.324551, -17.220659
2020-05-11 13:24:30.057323, 0.069374, -1.024970, 0.063506, 0.001879, 0.010492, 0.003575, 0.528548, -45.368244, -17.251972
2020-05-11 13:24:30.110108, 0.119831, -1.060786, 0.018775, -0.002550, 0.007438, 0.003880, 0.249284, -45.525177, -17.178234
2020-05-11 13:24:30.163014, 0.039726, -1.047532, 0.035267, -0.002855, -0.003100, 0.000979, -0.158928, -45.486057, -17.191883
2020-05-11 13:24:30.215873, -0.001498, -1.022258, 0.046526, -0.013980, 0.004237, 0.002865, -0.199897, -45.405972, -17.321928
2020-05-11 13:24:30.268643, -0.003172, -1.025587, 0.048230, -0.003623, 0.006163, 0.000260, -0.400672, -45.354099, -17.033718
2020-05-11 13:24:30.321437, 0.004208, -1.023491, 0.053342, 0.000484, -0.000095, -0.001963, -0.578093, -45.190624, -17.114042
2020-05-11 13:24:30.374182, -0.000195, -1.023922, 0.050664, 0.006225, -0.003487, -0.002341, -0.820829, -45.102539, -17.070797
2020-05-11 13:24:30.427029, 0.004642, -1.023861, 0.054864, 0.002032, -0.003519, -0.000491, -0.746218, -45.086956, -16.937412
2020-05-11 13:24:30.479789, 0.003898, -1.022751, 0.054012, -0.010732, -0.012850, -0.002541, -0.804129, -44.958614, -17.066051
2020-05-11 13:24:30.532608, 0.100066, -1.023367, 0.047013, -0.001416, -0.007810, -0.007428, -0.693658, -45.063301, -17.296806
2020-05-11 13:24:30.585423, 0.001913, -1.048334, 0.031190, -0.003401, 0.005171, 0.000513, -0.818081, -44.909195, -17.057203
2020-05-11 13:24:30.638436, 0.075451, -1.036498, 0.028573, -0.000042, -0.019111, 0.026017, -0.816820, -45.035961, -17.132830
2020-05-11 13:24:30.691367, 0.111483, -1.024107, 0.059550, -0.143680, -0.028512, 0.000348, -0.737411, -45.125175, -16.946362
2020-05-11 13:24:30.744271, 0.007495, -0.995566, 0.093752, 0.108913, -0.015532, -0.001026, -0.472283, -45.312424, -17.323088
2020-05-11 13:24:30.800719, -0.045592, -1.018251, 0.010681, -0.005777, -0.012019, -0.001332, -0.467381, -45.431728, -17.357159
2020-05-11 13:24:30.853508, -0.009684, -1.015230, 0.029181, -0.004699, 0.000930, -0.003797, -0.301060, -45.667446, -17.704023
2020-05-11 13:24:30.906554, 0.052003, -1.025895, 0.036484, 0.025539, -0.019076, 0.001548, -0.123203, -45.788933, -17.865295
2020-05-11 13:24:30.959486, 0.008483, -1.025402, 0.056324, 0.000182, 0.014480, -0.002046, 0.220683, -45.800739, -17.927485
2020-05-11 13:24:31.012696, 0.012411, -1.012086, 0.034720, -0.006763, -0.003275, -0.003012, 0.585392, -45.858974, -17.907503
2020-05-11 13:24:31.065664, 0.016769, -1.054622, 0.006318, -0.001112, -0.015645, -0.001026, 0.933159, -45.698204, -17.693943
2020-05-11 13:24:31.118741, -0.008878, -1.023614, 0.039162, 0.010036, -0.008772, -0.000415, 1.177772, -45.490303, -17.741009
2020-05-11 13:24:31.171639, -0.014645, -1.023614, 0.050117, 0.008963, 0.001411, -0.000697, 1.379063, -45.037342, -17.653725
2020-05-11 13:24:31.224873, 0.000053, -0.980216, 0.152359, -0.005545, 0.018821, -0.002071, 1.668896, -44.729862, -17.621668
2020-05-11 13:24:31.278052, -0.001808, -1.022011, 0.064175, 0.011407, 0.002175, -0.000391, 1.626362, -44.215530, -17.540819
2020-05-11 13:24:31.330918, -0.023328, -1.022135, 0.033563, 0.012650, -0.005574, 0.001098, 1.642735, -43.804066, -17.386068
2020-05-11 13:24:31.383719, 0.066551, -1.049320, -0.021419, 0.006236, -0.027566, -0.001651, 1.644633, -43.462696, -17.465654
2020-05-11 13:24:31.436454, -0.021653, -1.012271, 0.051516, -0.003385, -0.018555, 0.001098, 1.696552, -43.159107, -17.293976
2020-05-11 13:24:31.489242, -0.018676, -1.026142, 0.083102, 0.006324, 0.006274, 0.000471, 1.743687, -42.922337, -17.217648
2020-05-11 13:24:31.541981, 0.016831, -1.033970, 0.065392, 0.008327, 0.019646, -0.001169, 1.826195, -42.958572, -17.089760
2020-05-11 13:24:31.594774, -0.011606, -1.037114, 0.060098, 0.007755, 0.001424, 0.000199, 2.009801, -42.938770, -16.917717
2020-05-11 13:24:31.647482, 0.084229, -1.015539, 0.010863, 0.007449, 0.014099, -0.001939, 2.207086, -42.770462, -16.570885
2020-05-11 13:24:31.700357, 0.024933, -1.034895, 0.059063, 0.003784, 0.004631, -0.002245, 2.308914, -42.587021, -16.482277
2020-05-11 13:24:31.753174, 0.044330, -1.021641, 0.045005, 0.006610, -0.013239, -0.000841, 2.429577, -42.702518, -16.219625
2020-05-11 13:24:31.806091, 0.026775, -1.038162, 0.023278, 0.005799, 0.002999, -0.001256, 2.968507, -42.422890, -15.733480
2020-05-11 13:24:31.858850, 0.105160, -1.039087, 0.064540, 0.020613, -0.020367, -0.003852, 3.310050, -42.174793, -15.454974
2020-05-11 13:24:31.911648, 0.047399, -1.011778, 0.057785, 0.003509, -0.005859, 0.000882, 3.756886, -41.982414, -15.572116
2020-05-11 13:24:31.964426, -0.013281, -1.032923, 0.065575, -0.001226, -0.021589, 0.003478, 4.181554, -41.816311, -15.558325
2020-05-11 13:24:32.017251, 0.070848, -1.013011, 0.044396, 0.008090, -0.021436, -0.004463, 4.689288, -41.366295, -15.407826
2020-05-11 13:24:32.069975, -0.074739, -1.012888, 0.030886, 0.001065, -0.017923, 0.000577, 5.213076, -40.744034, -15.034647
2020-05-11 13:24:32.122765, 0.016831, -1.019299, 0.057846, 0.003051, -0.010135, -0.000645, 5.805706, -40.038864, -15.218421
2020-05-11 13:24:32.175575, 0.014805, -1.020162, 0.037032, 0.006640, 0.003637, -0.002395, 6.358210, -39.114902, -15.132998
2020-05-11 13:24:32.228378, 0.020821, -1.014121, 0.084623, 0.003023, -0.006671, 0.000490, 6.861814, -38.223263, -15.331968
2020-05-11 13:24:32.281147, -0.021219, -1.028669, 0.109088, 0.012186, 0.008143, -0.002107, 7.107896, -37.284298, -15.656759
2020-05-11 13:24:32.333925, -0.029777, -1.020717, 0.035511, 0.008673, -0.023622, -0.004550, 7.472762, -36.331863, -15.681244
2020-05-11 13:24:32.386667, 0.022110, -1.020717, 0.079694, -0.000337, 0.016542, -0.002259, 7.568655, -35.551620, -15.758943
2020-05-11 13:24:32.439463, -0.038770, -1.018806, 0.075799, 0.011728, -0.003463, -0.007146, 7.482969, -34.500511, -16.100033
2020-05-11 13:24:32.492219, -0.008754, -1.021025, 0.023217, 0.003176, 0.009517, -0.001038, 7.330420, -33.531551, -16.367094
2020-05-11 13:24:32.545106, -0.089748, -1.022381, 0.045674, 0.005772, 0.007532, -0.004397, 7.275582, -32.695393, -16.601080
2020-05-11 13:24:32.597856, -0.071515, -1.011655, 0.053525, 0.004989, -0.011025, 0.000768, 6.923711, -31.867899, -16.692387
2020-05-11 13:24:32.650653, 0.015787, -1.030888, 0.067401, 0.020413, -0.001862, -0.008395, 6.569414, -31.431559, -17.079229
2020-05-11 13:24:32.703398, -0.028475, -1.019730, 0.079390, -0.004183, -0.024091, 0.001333, 6.084376, -30.795843, -16.935442
2020-05-11 13:24:32.756195, -0.053840, -1.023491, 0.046526, 0.004667, 0.029857, -0.003287, 5.617946, -30.433643, -16.994743
2020-05-11 13:24:32.808926, 0.085886, -1.036806, 0.058454, 0.010012, -0.013056, -0.003287, 5.239202, -30.284155, -17.140972
2020-05-11 13:24:32.861708, -0.025994, -1.018313, 0.044396, -0.000373, 0.009241, -0.000691, 4.813007, -30.158464, -17.284105
2020-05-11 13:24:32.914446, -0.047700, -1.024477, 0.051456, 0.002887, -0.005387, -0.001849, 4.388051, -30.204283, -17.189413
2020-05-11 13:24:32.967329, -0.001684, -1.019607, 0.066183, -0.004886, -0.000779, 0.003675, 4.025686, -30.204346, -17.244408
2020-05-11 13:24:33.020104, 0.066428, -1.021703, 0.046283, 0.003667, -0.013912, -0.001671, 3.522994, -30.076321, -17.137316
2020-05-11 13:24:33.072943, -0.001374, -1.016217, 0.042327, -0.000609, -0.001390, 0.003522, 3.395241, -30.047087, -17.223070
2020-05-11 13:24:33.125708, -0.050367, -1.024724, 0.047561, 0.004578, 0.003528, -0.001320, 3.203438, -29.999304, -17.230658
2020-05-11 13:24:33.178519, -0.004040, -1.036313, 0.044396, 0.019778, -0.000870, -0.010871, 2.988395, -30.168436, -17.483696
2020-05-11 13:24:33.231271, -0.003916, -1.020224, 0.048108, -0.001549, -0.000103, 0.001449, 2.732361, -30.132977, -17.302597
2020-05-11 13:24:33.284055, -0.002986, -1.021148, 0.048839, -0.000464, 0.000343, 0.000367, 2.723534, -30.043621, -17.291372
2020-05-11 13:24:33.336919, -0.003172, -1.017326, 0.049812, -0.005320, -0.000702, 0.005079, 2.632473, -29.996532, -17.209755
2020-05-11 13:24:33.389706, -0.005839, -1.026203, 0.047987, 0.002534, 0.000207, -0.000257, 2.514823, -30.086935, -17.368187
2020-05-11 13:24:33.442668, -0.003606, -1.025895, 0.048717, -0.006260, -0.000095, 0.006099, 2.280704, -30.153158, -17.367088
2020-05-11 13:24:33.495865, -0.003482, -1.023614, 0.049326, -0.003394, 0.001385, 0.003977, 2.339808, -30.395199, -17.276138
2020-05-11 13:24:33.548838, -0.003358, -1.020902, 0.050178, -0.001953, 0.001043, 0.004435, 2.392692, -30.460758, -17.209188
2020-05-11 13:24:33.601683, -0.026800, -1.019237, 0.046344, -0.005135, -0.004897, -0.004718, 2.401399, -30.311945, -16.844738
2020-05-11 13:24:33.654562, -0.020785, -1.019545, 0.045005, 0.005074, -0.002224, 0.000163, 2.313164, -30.333166, -16.866974
2020-05-11 13:24:33.707476, -0.017188, -1.027498, 0.025530, 0.003281, 0.007298, -0.003976, 2.348977, -29.734167, -16.934158
2020-05-11 13:24:33.760228, 0.001665, -1.032429, 0.045248, 0.000072, 0.003660, 0.004866, 2.428027, -29.694080, -16.926889
2020-05-11 13:24:33.813073, -0.031514, -1.011840, 0.040319, -0.000964, 0.001176, 0.000866, 2.592067, -29.759590, -17.356903
2020-05-11 13:24:33.865999, -0.012537, -1.025648, 0.045005, 0.008959, 0.001727, -0.003887, 2.667299, -29.635134, -17.407455
2020-05-11 13:24:33.918868, -0.036289, -1.022504, 0.047378, 0.010875, 0.029866, -0.001100, 2.917884, -29.791718, -17.322960
2020-05-11 13:24:33.971738, -0.052351, -1.015600, 0.062775, 0.002983, 0.008646, 0.000856, 3.140753, -29.697428, -17.543011
2020-05-11 13:24:34.024568, 0.035368, -1.033539, 0.056568, 0.004205, -0.027395, 0.004979, 3.386247, -29.530516, -17.652224
2020-05-11 13:24:34.077488, 0.021741, -1.001730, 0.038615, -0.012469, 0.002305, 0.005256, 3.481843, -29.604343, -17.768650
2020-05-11 13:24:34.130312, -0.000567, -1.027929, 0.044092, 0.003890, -0.006482, -0.000381, 3.681520, -29.571924, -17.765909
2020-05-11 13:24:34.183311, -0.020289, -1.024600, 0.053768, -0.006130, -0.003461, 0.001550, 3.947661, -29.564285, -17.888653
2020-05-11 13:24:34.236199, 0.001541, -1.020963, 0.044944, -0.000316, 0.001969, 0.003713, 4.227775, -29.509384, -17.969416
2020-05-11 13:24:34.289319, -0.018180, -1.031690, 0.100203, -0.003982, 0.018310, -0.005603, 4.597465, -29.605736, -17.839355
2020-05-11 13:24:34.342276, -0.048506, -1.025710, 0.059367, -0.019253, 0.012659, 0.006615, 4.988417, -29.481556, -17.467999
2020-05-11 13:24:34.395149, -0.022025, -1.023676, 0.064601, 0.000728, 0.006185, 0.001670, 5.401979, -29.467596, -17.473087
2020-05-11 13:24:34.448008, 0.036412, -1.033847, 0.067401, 0.008363, -0.010003, -0.000620, 5.632029, -29.523514, -17.326071
2020-05-11 13:24:34.500849, -0.043979, -1.015045, 0.046587, -0.009352, 0.009239, 0.005030, 6.006468, -29.690224, -16.897568
2020-05-11 13:24:34.553648, -0.006707, -1.023552, 0.047682, 0.005132, -0.005094, 0.002205, 6.535620, -30.037048, -16.819168
2020-05-11 13:24:34.606516, -0.036661, -1.028792, 0.072330, -0.003011, -0.012305, 0.000655, 7.020541, -30.515768, -16.387445
2020-05-11 13:24:34.659325, 0.047645, -1.027005, 0.031677, -0.005912, -0.000240, 0.004015, 7.335678, -31.020720, -16.538912
2020-05-11 13:24:34.712180, 0.018611, -1.025463, 0.045065, 0.008604, -0.020900, 0.002848, 7.542988, -31.680830, -16.357910
2020-05-11 13:24:34.765068, -0.020103, -1.005059, 0.104037, -0.006209, 0.019264, 0.004833, 7.602436, -32.452869, -16.506567
2020-05-11 13:24:34.818043, -0.023948, -1.026635, 0.039710, 0.001885, -0.003796, 0.001626, 7.717194, -33.070499, -16.442446
2020-05-11 13:24:34.870928, -0.030211, -1.010175, 0.101968, -0.008194, 0.009643, -0.000206, 7.674600, -33.784161, -16.507370
2020-05-11 13:24:34.924010, 0.024504, -1.008079, 0.075130, -0.008042, 0.002160, 0.004070, 7.702126, -34.556351, -16.199024
2020-05-11 13:24:34.977030, -0.026118, -1.018621, 0.062045, 0.002649, 0.009643, -0.001428, 7.628946, -35.137508, -15.821598
2020-05-11 13:24:35.030313, -0.024444, -1.022936, 0.019079, -0.013826, 0.011684, -0.002266, 7.340802, -36.108635, -15.679461
2020-05-11 13:24:35.083291, 0.023706, -1.012888, 0.039284, 0.000376, 0.020847, 0.000941, 7.306287, -36.824547, -15.362365
2020-05-11 13:24:35.136157, -0.016940, -1.015724, 0.014636, 0.001988, 0.009818, -0.000715, 6.937075, -37.531452, -15.222003
2020-05-11 13:24:35.189006, -0.002366, -1.033231, 0.006681, -0.000736, -0.005272, -0.002462, 6.602505, -38.127468, -15.202690
2020-05-11 13:24:35.242189, 0.030765, -1.023367, 0.051456, -0.003790, -0.003897, 0.002425, 6.138849, -38.921417, -15.254067
2020-05-11 13:24:35.295346, 0.007557, -1.028977, 0.091014, 0.001946, 0.017343, -0.001199, 5.639125, -40.270134, -15.402674
2020-05-11 13:24:35.348170, -0.013343, -1.026635, 0.060037, 0.000848, -0.011136, 0.000465, 5.099345, -40.684341, -15.405337
2020-05-11 13:24:35.401282, 0.019532, -1.037608, 0.022365, 0.004971, -0.009609, 0.000465, 4.661922, -41.046200, -15.369697
2020-05-11 13:24:35.454209, -0.004474, -1.027559, 0.034780, 0.000967, -0.001612, 0.002959, 4.121583, -41.183216, -15.445783
2020-05-11 13:24:35.507017, -0.029839, -1.028361, 0.053768, 0.000197, -0.021045, -0.001716, 3.750911, -41.420906, -15.692606
2020-05-11 13:24:35.559814, 0.012964, -1.025094, 0.047865, -0.026235, 0.003276, 0.001441, 3.403974, -41.665947, -15.677961
2020-05-11 13:24:35.612683, -0.009126, -0.983668, 0.112497, 0.042946, -0.000389, 0.002816, 3.182425, -41.746101, -15.948081
2020-05-11 13:24:35.665525, -0.030583, -1.024847, 0.053342, 0.002018, -0.014133, -0.000086, 3.122785, -41.730942, -15.943357
2020-05-11 13:24:35.718415, 0.014191, -1.026203, 0.044639, -0.012960, -0.003328, 0.000065, 2.968673, -41.913975, -16.450951
2020-05-11 13:24:35.771217, 0.019716, -1.014614, 0.104828, -0.114822, -0.004092, 0.000217, 2.822984, -42.096992, -16.479307
2020-05-11 13:24:35.824280, -0.047824, -1.012333, 0.056750, -0.083362, -0.011117, 0.000370, 2.751232, -42.328793, -16.467125
2020-05-11 13:24:35.877119, -0.012599, -1.034155, 0.041962, 0.023198, -0.032004, 0.001391, 2.604231, -42.312973, -16.483530
2020-05-11 13:24:35.930167, -0.005157, -1.028546, 0.066792, -0.078552, -0.011599, -0.000279, 2.649030, -42.495476, -16.377527
2020-05-11 13:24:35.982994, -0.012971, -1.011901, 0.080668, -0.001973, 0.014180, -0.000270, 2.690469, -42.684170, -16.376986
2020-05-11 13:24:36.035893, 0.044023, -1.016217, 0.034841, 0.022615, 0.002726, 0.000952, 2.762821, -43.109570, -16.388174
2020-05-11 13:24:36.088705, -0.019482, -1.007463, 0.062958, -0.009914, -0.018043, 0.001563, 2.882302, -43.529175, -16.678961
2020-05-11 13:24:36.141554, 0.010263, -0.996798, 0.083285, 0.151771, 0.006178, 0.005792, 2.849087, -43.974636, -16.737259
2020-05-11 13:24:36.194470, 0.011429, -1.026265, 0.082067, 0.002334, -0.012481, 0.000432, 2.693715, -44.166340, -16.792614
2020-05-11 13:24:36.247313, 0.022785, -1.024970, 0.027782, -0.100749, 0.029821, -0.001554, 2.463017, -44.520962, -17.121639
2020-05-11 13:24:36.300154, 0.055993, -1.007525, 0.084563, -0.167181, -0.005456, -0.000026, 2.149659, -44.987621, -17.196001
2020-05-11 13:24:36.353020, -0.078522, -1.024662, 0.045857, 0.026005, 0.009357, -0.000790, 2.066972, -45.391445, -17.316505
2020-05-11 13:24:36.406003, 0.002782, -1.030703, 0.082615, -0.195739, -0.013703, 0.000279, 1.676023, -45.720600, -17.218239
2020-05-11 13:24:36.458848, 0.034079, -1.028114, 0.098256, -0.026826, -0.004388, 0.000122, 1.682464, -45.990025, -17.145437
2020-05-11 13:24:36.512140, 0.044637, -1.029902, 0.065149, 0.056739, -0.013543, -0.003720, 1.357216, -45.992107, -17.034897
2020-05-11 13:24:36.565048, 0.021557, -1.021210, 0.074156, 0.081420, 0.002262, 0.000390, 1.001818, -46.371899, -17.234112
2020-05-11 13:24:36.617807, 0.002471, -1.027436, 0.062106, 0.025118, -0.007704, 0.000081, 0.829500, -46.492767, -17.114552
2020-05-11 13:24:36.670645, -0.010428, -1.028422, 0.075738, -0.080976, 0.001558, -0.000512, 0.736445, -46.479683, -16.780651
2020-05-11 13:24:36.723405, -0.088879, -1.024292, 0.073486, -0.085711, 0.015913, -0.001275, 0.600401, -46.328945, -16.716917
2020-05-11 13:24:36.776285, -0.016196, -1.009990, 0.098073, -0.086780, -0.006384, -0.000817, 0.536366, -46.263245, -16.506126
2020-05-11 13:24:36.829191, -0.011792, -1.037053, 0.070626, -0.032513, 0.004458, 0.000243, 0.356338, -46.393646, -16.241611
2020-05-11 13:24:36.882045, 0.005200, -1.015785, 0.108419, -0.147168, -0.001153, -0.000946, 0.167516, -46.278412, -16.306025
2020-05-11 13:24:36.934931, -0.019296, -1.023429, 0.072513, 0.052308, -0.009972, 0.003515, 0.010858, -46.113037, -15.988553
2020-05-11 13:24:36.987755, 0.003526, -1.019237, 0.094300, 0.070937, 0.005271, -0.000441, -0.131269, -45.834370, -15.810120
2020-05-11 13:24:37.040566, 0.006813, -1.019977, 0.088701, 0.004503, 0.002881, -0.001460, -0.306570, -45.824890, -15.771972
2020-05-11 13:24:37.093393, 0.003898, -1.020285, 0.091805, 0.003762, 0.001604, -0.002444, -0.553210, -45.780716, -15.671721
2020-05-11 13:24:37.146212, -0.000071, -1.022011, 0.084806, 0.010133, 0.000960, -0.002068, -0.666523, -45.623402, -15.527599
2020-05-11 13:24:37.199033, 0.001231, -1.019176, 0.088031, 0.000347, 0.001518, -0.003327, -0.605973, -45.790291, -15.403584
2020-05-11 13:24:37.251889, 0.000983, -1.021888, 0.086997, -0.000698, 0.001468, -0.002331, -0.675133, -45.667652, -15.269506
2020-05-11 13:24:37.304721, 0.001665, -1.019730, 0.089127, -0.002594, 0.001862, -0.001515, -0.657661, -45.685421, -15.490568
2020-05-11 13:24:37.357631, 0.003340, -1.021703, 0.108297, -0.002212, -0.000858, -0.002202, -0.654884, -45.608150, -15.655796
2020-05-11 13:24:37.410447, 0.083185, -1.000251, 0.034841, -0.023440, -0.004828, -0.021139, -0.445462, -45.528038, -15.721151
2020-05-11 13:24:37.463216, 0.040340, -1.014367, 0.075616, -0.262899, 0.011970, -0.002508, -0.440324, -45.439556, -15.619443
2020-05-11 13:24:37.516073, 0.061763, -1.045621, 0.065575, -0.237395, -0.010632, 0.009404, -0.329814, -45.563931, -15.633958
2020-05-11 13:24:37.568944, 0.048320, -0.984593, 0.166356, -0.429360, 0.009222, 0.002685, -0.482206, -45.602444, -15.282379
2020-05-11 13:24:37.621778, 0.087421, -0.997292, 0.137753, -0.285348, -0.004370, -0.002050, -0.212120, -45.871105, -15.012738
2020-05-11 13:24:37.674701, -0.100104, -0.975962, 0.134345, -0.158594, -0.007272, 0.002074, -0.080051, -46.238503, -14.669183
2020-05-11 13:24:37.727587, 0.078152, -1.062451, 0.152906, 0.154322, -0.005134, -0.007242, 0.059205, -46.434841, -14.458260
2020-05-11 13:24:37.780661, 0.087544, -1.031012, 0.099960, 0.387978, -0.038579, -0.000064, 0.389009, -46.402847, -14.367970
2020-05-11 13:24:37.833481, 0.045251, -0.943599, 0.130024, 0.209605, 0.001738, -0.004493, 0.619252, -46.304070, -14.379999
2020-05-11 13:24:37.886492, 0.115657, -1.046238, 0.198368, 0.456242, -0.008341, -0.001897, 0.960247, -46.334824, -14.691797
2020-05-11 13:24:37.939312, -0.013033, -1.005367, 0.078233, 0.548024, 0.022050, -0.007242, 1.266643, -46.030094, -14.996441
2020-05-11 13:24:37.992194, -0.017932, -1.021210, 0.088457, 0.385840, -0.024223, -0.003119, 1.634960, -45.871693, -15.492936
2020-05-11 13:24:38.045052, 0.028800, -1.026326, 0.068435, 0.003744, 0.002044, -0.000217, 2.013613, -45.604702, -15.942431
2020-05-11 13:24:38.097821, -0.013219, -1.028422, 0.051090, -0.007158, 0.035634, -0.001096, 2.182135, -45.092266, -16.031815
2020-05-11 13:24:38.150633, -0.040568, -1.027929, 0.012506, -0.003967, 0.016436, -0.003421, 2.395354, -44.706715, -16.475227
2020-05-11 13:24:38.203399, 0.023828, -1.026388, 0.012445, 0.006571, 0.008037, -0.002963, 2.605128, -44.367779, -16.420279
2020-05-11 13:24:38.256290, 0.026898, -1.040135, 0.048474, 0.001923, -0.003451, -0.004193, 2.929748, -43.968555, -16.719172
2020-05-11 13:24:38.309143, 0.061640, -1.022689, 0.111827, -0.001131, -0.001313, -0.002208, 2.926244, -43.508904, -16.722939
2020-05-11 13:24:38.361969, -0.043731, -1.037053, 0.044761, -0.007087, 0.017777, -0.002818, 2.951440, -43.122887, -16.728857
2020-05-11 13:24:38.414885, -0.060662, -1.034402, 0.059671, 0.011750, -0.000531, -0.003758, 2.792397, -42.948246, -16.518583
2020-05-11 13:24:38.467750, 0.015480, -1.025217, 0.089796, 0.000601, -0.022827, -0.003147, 2.670763, -42.784138, -16.539225
2020-05-11 13:24:38.520651, -0.004474, -1.022443, 0.061254, -0.005028, 0.014102, -0.000385, 2.607056, -42.683346, -16.497627
2020-05-11 13:24:38.573471, 0.009956, -1.027683, 0.038675, 0.002816, 0.006694, -0.000815, 2.757690, -42.712490, -16.414955
2020-05-11 13:24:38.626410, -0.023265, -1.023614, 0.039345, 0.005084, -0.026155, 0.000984, 2.726997, -42.656521, -16.139620
2020-05-11 13:24:38.679240, 0.021926, -1.028053, 0.028877, 0.006834, -0.003287, -0.001116, 3.010443, -42.709328, -16.038477
2020-05-11 13:24:38.732180, -0.069902, -1.024662, 0.006197, -0.007980, 0.021301, 0.000411, 3.029999, -42.678387, -15.739649
2020-05-11 13:24:38.785062, -0.047142, -1.023183, 0.038675, 0.004391, 0.013504, -0.003293, 3.325645, -42.586548, -15.817288
2020-05-11 13:24:38.837879, -0.026614, -1.019730, 0.057602, 0.003212, 0.009364, -0.001412, 3.545361, -42.696041, -15.835817
2020-05-11 13:24:38.890705, -0.006893, -1.026203, 0.067948, 0.006500, -0.001135, -0.002841, 3.821934, -42.838524, -15.821586
2020-05-11 13:24:38.943438, 0.047706, -1.028607, 0.079207, 0.000849, -0.000524, 0.000672, 4.132792, -42.562187, -15.676546
2020-05-11 13:24:38.996256, -0.047204, -1.038656, 0.028755, 0.002071, -0.019308, -0.001925, 4.431879, -42.359413, -15.577948
2020-05-11 13:24:39.049021, 0.024381, -1.028607, 0.086693, 0.008485, 0.011541, -0.005284, 4.844748, -41.941048, -15.531029
2020-05-11 13:24:39.101840, 0.048688, -1.043525, 0.028695, 0.000239, -0.017323, -0.003604, 5.348644, -41.594158, -15.717219
2020-05-11 13:24:39.154614, 0.057957, -1.024600, 0.064844, 0.000378, -0.020879, 0.001240, 5.802161, -41.115387, -15.314122
2020-05-11 13:24:39.207503, 0.023890, -1.028299, 0.040440, 0.009814, -0.004534, -0.006921, 6.209774, -40.592098, -15.357740
2020-05-11 13:24:39.260340, 0.054029, -1.007833, 0.070017, -0.000847, -0.003055, 0.002905, 6.558265, -40.027096, -15.206681
2020-05-11 13:24:39.313164, -0.027917, -1.035327, 0.041110, 0.004040, 0.004734, 0.000920, 6.893057, -39.331142, -15.143945
2020-05-11 13:24:39.366012, -0.064755, -1.012456, 0.018166, -0.005986, 0.002952, 0.001332, 7.379291, -38.292576, -15.148961
2020-05-11 13:24:39.418828, 0.003278, -1.053944, 0.091926, 0.014020, -0.021330, -0.008900, 7.729078, -37.498314, -15.484203
2020-05-11 13:24:39.471595, -0.035297, -1.018929, 0.070078, -0.011331, 0.013795, 0.005150, 8.020107, -36.551868, -15.395018
2020-05-11 13:24:39.524507, 0.001479, -1.039025, 0.006439, 0.005162, 0.011963, -0.002180, 8.241731, -35.666637, -15.817609
2020-05-11 13:24:39.577306, -0.064631, -1.012025, 0.055837, -0.012095, 0.001578, 0.005761, 8.441430, -35.092625, -16.088854
2020-05-11 13:24:39.630228, 0.009403, -1.029717, 0.067096, 0.004552, 0.002341, 0.001790, 8.533989, -34.529736, -16.358150
2020-05-11 13:24:39.683030, -0.008878, -1.028422, 0.051942, -0.005639, -0.004527, -0.000927, 8.400837, -33.884262, -16.495138
2020-05-11 13:24:39.735872, -0.016010, -1.027929, 0.030520, 0.003702, -0.018401, -0.002815, 8.501514, -33.331291, -16.613445
2020-05-11 13:24:39.788660, -0.003730, -1.012456, 0.066609, -0.011774, 0.002880, 0.004365, 8.475657, -32.821827, -16.734240
2020-05-11 13:24:39.841504, 0.043594, -1.039950, 0.045126, 0.004108, 0.000742, -0.006630, 8.494170, -32.341072, -16.999395
2020-05-11 13:24:39.894346, -0.016754, -1.003518, 0.048900, -0.005055, 0.012654, 0.005587, 8.016181, -31.871084, -17.040094
2020-05-11 13:24:39.947172, -0.007203, -1.028299, 0.047682, 0.011795, -0.012126, -0.001833, 7.689790, -31.287737, -17.183064
2020-05-11 13:24:39.999945, -0.034056, -1.014675, 0.073608, 0.000773, 0.002007, 0.000442, 7.434278, -30.863750, -17.041754
2020-05-11 13:24:40.052768, -0.006521, -1.030827, 0.041779, 0.010638, -0.007803, -0.005034, 6.983467, -30.439178, -17.050737
2020-05-11 13:24:40.105711, -0.038584, -1.019237, 0.031555, -0.004479, 0.011796, 0.000448, 6.555619, -30.136114, -17.255501
2020-05-11 13:24:40.158525, 0.005510, -1.035450, 0.045492, 0.003052, -0.005426, -0.001929, 6.280540, -29.802179, -17.169436
2020-05-11 13:24:40.211334, -0.036165, -1.013936, 0.056324, -0.004284, 0.023837, 0.001088, 5.909278, -29.693600, -16.859425
2020-05-11 13:24:40.264154, 0.000301, -1.029902, 0.048413, 0.000878, -0.006040, -0.006625, 5.472268, -29.771404, -17.076300
2020-05-11 13:24:40.317087, -0.009560, -1.016956, 0.048960, -0.005499, 0.011138, 0.005849, 5.044260, -29.803154, -17.058035
2020-05-11 13:24:40.369916, -0.025250, -1.027744, 0.057359, 0.012547, -0.005324, -0.013833, 4.808253, -29.926134, -16.988218
2020-05-11 13:24:40.422714, -0.053592, -1.016833, 0.035450, -0.000715, -0.000866, 0.000505, 4.289047, -30.055012, -16.938177
2020-05-11 13:24:40.475549, -0.009498, -1.042108, 0.035267, 0.010281, -0.022704, -0.007589, 4.125683, -30.060534, -17.087002
2020-05-11 13:24:40.528396, -0.057623, -0.980647, 0.064966, -0.008656, 0.012421, 0.009057, 3.843791, -30.168631, -17.147951
2020-05-11 13:24:40.581212, -0.009126, -1.029779, 0.044579, 0.034105, -0.005447, -0.007742, 3.618279, -30.230713, -16.929403
2020-05-11 13:24:40.633993, -0.006583, -1.018621, 0.049386, 0.003148, -0.003346, -0.003202, 3.342668, -30.310871, -16.943424
2020-05-11 13:24:40.686833, -0.005777, -1.024354, 0.044031, 0.004371, -0.002497, -0.003391, 3.379780, -30.442085, -17.428242
2020-05-11 13:24:40.739680, -0.006955, -1.025957, 0.046222, 0.002159, 0.001425, -0.002097, 3.129469, -30.327501, -17.365738
2020-05-11 13:24:40.792494, -0.005095, -1.021087, 0.045918, -0.009723, 0.000934, 0.006683, 2.996420, -30.327314, -17.295397
2020-05-11 13:24:40.845234, -0.006335, -1.031381, 0.045370, -0.014418, 0.002084, 0.011332, 2.923582, -30.290573, -17.178108
2020-05-11 13:24:40.898074, -0.008878, -1.023244, 0.048108, -0.024862, 0.002458, 0.022912, 2.831711, -30.450241, -17.261515
2020-05-11 13:24:40.950828, -0.013839, -1.025772, 0.051882, 0.005935, -0.007072, -0.003539, 2.707814, -30.608471, -17.101608
2020-05-11 13:24:41.003640, -0.018552, -1.020655, 0.043301, -0.003416, 0.025936, 0.006027, 2.659096, -30.369127, -17.081188
2020-05-11 13:24:41.056414, -0.023700, -1.027066, 0.054925, 0.004670, 0.000123, -0.003917, 2.558522, -30.391109, -17.056135
2020-05-11 13:24:41.109270, -0.036661, -1.024477, 0.049386, 0.000085, 0.006467, -0.001277, 2.735663, -30.366005, -17.227858
2020-05-11 13:24:41.162018, -0.032196, -1.022381, 0.052490, -0.004051, -0.010578, 0.003047, 2.950176, -30.144661, -17.327463
2020-05-11 13:24:41.214900, 0.008790, -1.022196, 0.049812, 0.000660, 0.018709, 0.006488, 3.312186, -30.004179, -17.479786
2020-05-11 13:24:41.267827, 0.010631, -1.027621, 0.038919, -0.000543, 0.023843, -0.001257, 3.584994, -29.684435, -17.438934
2020-05-11 13:24:41.320660, 0.029476, -1.012456, 0.082798, -0.010011, 0.003990, 0.004394, 3.825640, -29.453033, -17.702618
2020-05-11 13:24:41.373408, -0.013963, -1.031135, 0.042327, 0.003581, -0.022125, 0.002561, 4.191757, -29.676531, -17.721800
2020-05-11 13:24:41.426255, -0.086213, -1.033662, 0.041901, -0.024672, 0.022316, 0.001034, 4.602251, -29.690662, -17.841743
2020-05-11 13:24:41.479030, 0.041016, -1.024415, 0.000625, -0.007873, 0.005517, 0.003172, 5.199446, -29.531202, -17.644241
2020-05-11 13:24:41.531854, 0.036412, -1.024909, 0.061132, -0.002223, -0.010060, -0.000799, 5.856402, -29.769560, -17.762264
2020-05-11 13:24:41.584634, 0.017260, -1.022566, 0.059306, -0.000672, 0.004152, 0.000999, 6.393167, -30.082222, -17.612617
2020-05-11 13:24:41.637694, -0.080569, -1.016525, 0.072452, -0.002199, -0.022421, 0.001305, 6.968179, -30.411636, -17.205254
2020-05-11 13:24:41.690612, -0.006025, -1.020902, 0.085962, -0.003421, 0.024311, -0.000833, 7.176188, -30.748352, -16.757330
2020-05-11 13:24:41.743411, -0.028227, -0.998093, 0.149377, -0.000061, -0.011425, 0.002679, 7.521796, -31.170195, -16.340881
2020-05-11 13:24:41.796284, 0.030826, -1.027436, 0.093630, -0.003116, 0.017286, -0.001902, 7.915882, -31.629644, -15.757847
2020-05-11 13:24:41.849292, -0.023203, -1.025833, 0.017740, -0.002047, -0.003178, 0.007872, 7.967951, -32.436317, -15.210064
2020-05-11 13:24:41.902098, 0.045619, -1.026758, 0.029060, 0.000702, 0.005068, -0.000070, 8.054406, -33.374397, -15.184422
2020-05-11 13:24:41.955005, 0.029844, -1.016956, 0.066366, -0.005817, -0.001891, -0.001396, 8.011570, -34.173649, -15.082555
2020-05-11 13:24:42.007844, 0.022478, -1.020224, 0.015854, -0.005053, 0.005439, 0.005629, 7.887701, -35.020409, -14.916800
2020-05-11 13:24:42.060610, -0.020785, -1.021888, 0.033016, -0.000751, 0.006734, -0.002087, 7.805406, -35.868584, -14.731897
2020-05-11 13:24:42.113339, -0.010428, -1.019237, 0.051516, -0.013274, 0.018320, 0.009940, 7.593970, -36.894756, -14.828039
2020-05-11 13:24:42.166295, -0.008878, -1.016278, 0.087362, 0.005326, 0.002651, -0.003825, 7.172822, -37.715694, -14.913670
2020-05-11 13:24:42.219036, -0.039142, -1.021456, 0.020540, -0.003990, -0.016438, 0.005337, 6.735103, -38.518814, -14.575400
2020-05-11 13:24:42.271801, -0.008009, -1.027374, 0.036180, 0.007215, -0.006738, -0.000745, 6.435328, -39.338173, -14.827780
2020-05-11 13:24:42.324573, 0.006255, -1.024600, 0.030764, -0.001440, -0.012418, 0.004446, 6.033107, -39.914379, -15.029683
2020-05-11 13:24:42.377379, -0.012723, -1.020593, 0.053464, 0.004218, -0.019533, -0.000574, 5.621731, -40.247269, -15.130189
2020-05-11 13:24:42.430252, -0.020847, -1.027313, 0.046526, -0.002713, -0.005596, 0.002841, 5.029430, -40.647751, -14.928758
2020-05-11 13:24:42.483015, 0.007123, -1.032799, 0.011837, -0.001147, -0.011609, 0.003189, 4.757189, -41.084015, -15.389396
2020-05-11 13:24:42.535794, 0.008360, -1.021025, 0.051090, -0.001847, -0.005908, 0.000868, 4.382596, -41.304951, -15.638780
2020-05-11 13:24:42.588555, -0.000877, -1.023429, 0.027173, -0.000456, -0.015011, 0.002020, 3.982122, -41.536591, -15.536112
2020-05-11 13:24:42.641371, -0.014087, -1.019176, 0.026747, -0.005608, 0.003204, 0.001363, 3.633743, -41.734100, -15.401678
2020-05-11 13:24:42.694163, -0.073313, -1.024785, 0.046830, 0.003249, -0.012068, 0.004112, 3.332640, -41.849415, -15.808410
2020-05-11 13:24:42.747181, 0.040770, -1.014429, 0.041779, 0.008289, -0.000308, -0.000623, 3.293357, -42.088039, -15.872297
2020-05-11 13:24:42.800332, -0.045716, -1.015107, 0.035328, 0.006915, 0.021835, 0.000904, 3.144331, -42.095974, -16.051250
2020-05-11 13:24:42.853190, 0.042857, -1.021765, 0.052673, -0.005150, 0.005189, 0.001974, 2.795510, -42.163307, -16.258335
2020-05-11 13:24:42.906090, -0.048010, -1.024230, 0.031677, 0.000501, -0.000156, 0.000294, 2.538853, -42.156189, -16.467585
2020-05-11 13:24:42.958878, -0.134958, -1.011408, 0.063019, -0.000721, 0.047186, 0.002432, 2.479128, -42.333458, -16.501331
2020-05-11 13:24:43.011835, 0.000487, -1.027251, 0.020053, 0.002944, -0.004432, -0.000928, 2.610548, -42.438679, -16.688131
2020-05-11 13:24:43.064611, 0.015849, -1.030149, 0.079694, -0.002554, -0.002141, 0.000904, 2.609283, -42.711918, -16.828856
2020-05-11 13:24:43.117524, -0.036537, -1.013566, 0.070930, -0.004386, 0.015727, 0.000904, 2.731472, -43.046387, -16.894947
2020-05-11 13:24:43.170314, -0.032878, -1.010607, 0.065879, -0.001288, 0.016531, 0.001465, 2.728423, -43.387146, -16.982687
2020-05-11 13:24:43.223158, 0.012595, -1.023737, 0.042814, -0.003578, -0.011721, 0.000243, 2.569183, -43.769531, -16.980240
2020-05-11 13:24:43.276096, -0.032506, -1.025340, 0.066001, 0.007723, -0.011569, 0.002839, 2.710592, -44.081539, -16.844627
2020-05-11 13:24:43.328963, 0.053047, -1.026696, 0.068739, -0.003578, 0.011950, -0.000520, 2.734119, -44.386036, -16.715799
2020-05-11 13:24:43.381766, -0.000753, -1.026696, 0.053160, 0.002988, -0.006682, 0.001159, 2.646540, -44.769905, -17.193842
2020-05-11 13:24:43.434613, 0.070909, -1.004073, 0.008559, -0.001288, 0.011950, 0.000396, 1.826077, -45.131889, -17.390322
2020-05-11 13:24:43.487634, -0.001374, -1.018313, 0.055107, 0.000392, 0.007979, -0.003269, 1.869707, -45.390984, -17.306347
2020-05-11 13:24:43.540479, -0.026304, -1.024847, 0.059732, 0.004070, 0.021590, 0.000235, 1.624611, -45.738529, -17.645941
2020-05-11 13:24:43.593312, 0.006503, -0.998586, 0.061741, 0.000243, -0.024156, 0.000522, 1.422934, -45.815308, -17.327795
2020-05-11 13:24:43.646237, 0.038990, -1.009066, 0.029121, -0.000503, 0.024628, 0.000062, 1.054393, -45.797443, -17.904259
2020-05-11 13:24:43.699158, 0.062622, -1.020100, 0.062836, 0.003500, 0.003287, 0.003751, 0.714759, -45.679474, -17.752363
2020-05-11 13:24:43.752019, -0.000381, -1.024354, 0.055716, 0.000140, -0.002058, 0.002071, 0.409453, -45.633888, -17.636658
2020-05-11 13:24:43.804875, -0.029157, -1.014306, 0.047926, 0.007960, 0.004801, -0.001098, 0.142807, -45.554729, -17.407534
2020-05-11 13:24:43.857744, 0.015664, -1.024662, 0.043544, 0.003118, -0.000083, 0.000710, -0.232909, -45.527992, -17.137068
2020-05-11 13:24:43.910660, -0.004350, -1.012148, 0.036302, -0.017063, 0.001101, 0.003639, -0.376682, -45.348038, -16.970091
2020-05-11 13:24:43.963555, 0.002409, -1.023984, 0.046344, 0.001664, 0.002393, -0.000764, -0.491700, -45.313850, -16.975973
2020-05-11 13:24:44.016411, 0.003030, -1.023614, 0.052064, 0.000722, -0.001082, -0.001034, -0.555715, -45.298698, -17.192783
2020-05-11 13:24:44.069277, 0.002099, -1.023429, 0.050238, 0.000108, -0.001784, -0.000852, -0.590127, -45.079220, -16.843237
2020-05-11 13:24:44.122193, 0.001665, -1.024539, 0.049630, -0.001077, -0.002168, -0.001266, -0.410456, -45.013412, -16.877396
2020-05-11 13:24:44.175061, 0.001913, -1.024107, 0.049447, -0.001484, -0.003276, -0.001814, -0.524320, -44.875385, -16.631603
2020-05-11 13:24:44.227969, 0.006317, -1.023183, 0.054194, 0.000042, -0.003167, -0.003230, -0.553810, -44.905235, -16.548285
2020-05-11 13:24:44.280871, 0.087237, -1.024415, 0.052490, 0.002333, -0.003320, -0.001703, -0.437403, -44.892521, -16.926176
2020-05-11 13:24:44.333810, 0.021496, -1.022011, 0.048108, -0.003012, -0.001945, -0.002772, -0.534677, -44.906746, -16.772322
2020-05-11 13:24:44.386665, 0.044637, -1.015908, 0.034659, -0.008227, -0.010886, -0.003713, -0.562097, -44.966915, -17.021145
2020-05-11 13:24:44.439367, 0.071891, -1.022874, 0.034841, -0.002638, -0.028976, -0.001080, -0.550432, -45.185818, -16.842485
2020-05-11 13:24:44.492184, -0.030956, -1.006662, 0.045370, 0.004540, -0.012025, -0.002454, -0.501900, -45.263359, -16.885511
2020-05-11 13:24:44.545002, 0.025670, -1.029162, 0.067644, -0.002027, 0.034401, -0.002607, -0.250275, -45.447369, -17.091358
2020-05-11 13:24:44.597902, 0.033650, -1.017758, 0.074886, 0.001879, 0.020854, -0.001191, -0.054575, -45.716549, -17.276375
2020-05-11 13:24:44.650821, -0.009560, -1.021456, 0.041962, 0.006613, -0.012896, 0.000031, 0.180385, -45.846512, -17.276207
2020-05-11 13:24:44.703854, -0.073561, -1.016525, 0.061254, 0.006460, 0.018258, -0.003482, 0.502754, -45.944382, -17.310938
2020-05-11 13:24:44.756823, -0.049189, -1.036375, 0.040562, 0.004474, 0.008939, -0.000413, 0.900648, -45.967789, -17.225407
2020-05-11 13:24:44.809744, -0.023576, -1.030395, 0.051760, -0.000252, -0.010403, -0.002762, 1.330964, -45.681576, -17.098871
2020-05-11 13:24:44.862565, 0.115411, -1.033724, 0.046161, 0.013034, 0.005175, -0.005510, 1.652816, -45.452606, -16.840744
2020-05-11 13:24:44.915451, -0.026490, -1.029347, 0.032164, 0.000512, 0.032053, -0.001082, 1.977498, -45.092567, -16.640055
2020-05-11 13:24:44.968184, -0.026056, -1.019237, 0.074095, -0.002901, 0.005002, -0.000603, 2.125244, -44.731350, -16.668362
2020-05-11 13:24:45.021045, -0.034056, -1.023614, -0.017846, -0.002290, -0.014393, -0.001824, 2.125840, -44.326500, -16.545731
2020-05-11 13:24:45.073748, 0.037148, -1.009497, 0.041231, 0.004735, 0.000726, -0.003810, 2.120718, -43.990421, -16.447626
2020-05-11 13:24:45.126573, -0.013777, -1.016093, 0.015488, 0.000612, 0.009584, 0.000772, 2.150219, -43.544693, -16.342993
2020-05-11 13:24:45.179338, -0.004660, -1.020717, 0.059732, 0.003839, 0.019155, -0.003683, 2.067421, -43.163715, -16.314491
2020-05-11 13:24:45.232290, 0.035859, -1.023922, 0.044822, 0.007697, 0.008626, -0.004003, 1.961982, -42.974812, -16.483456
2020-05-11 13:24:45.285209, 0.029782, -1.025094, 0.104889, 0.000214, -0.011380, -0.004767, 1.922431, -42.848083, -16.511122
2020-05-11 13:24:45.338077, 0.028616, -1.012826, 0.067340, -0.000531, -0.004062, 0.002331, 1.935590, -42.728405, -16.422846
2020-05-11 13:24:45.390859, 0.032790, -1.025278, -0.036196, -0.001906, -0.012920, -0.003320, 1.946117, -42.553375, -16.349318
2020-05-11 13:24:45.443680, -0.027669, -1.035512, 0.004198, 0.005883, -0.006964, -0.004847, 2.077739, -42.474342, -16.145220
2020-05-11 13:24:45.496434, 0.041629, -1.031196, 0.054255, 0.006646, 0.016249, -0.005152, 2.244636, -42.514793, -15.999374
2020-05-11 13:24:45.549360, -0.009312, -1.025155, 0.055351, -0.007098, 0.007544, -0.002709, 2.462154, -42.498363, -16.001825
2020-05-11 13:24:45.602075, -0.006521, -1.025402, 0.077138, 0.003472, -0.013227, -0.002176, 2.815369, -42.418137, -15.849792
2020-05-11 13:24:45.654914, 0.022171, -1.019792, 0.058211, 0.008966, -0.005996, -0.000627, 3.170740, -42.396645, -15.609039
2020-05-11 13:24:45.707903, -0.006583, -1.014121, 0.074460, -0.000190, 0.005276, -0.001639, 3.443838, -42.233082, -15.701180
2020-05-11 13:24:45.760856, 0.073119, -1.019237, 0.053525, 0.004544, -0.005872, -0.001945, 3.847116, -42.041241, -15.411700
2020-05-11 13:24:45.813590, 0.010999, -1.023429, 0.017436, -0.012102, -0.007858, 0.004775, 4.197738, -41.869473, -15.290526
2020-05-11 13:24:45.866511, -0.000691, -1.034402, 0.026686, 0.007493, -0.000953, -0.005718, 4.635036, -41.262451, -15.295281
2020-05-11 13:24:45.919254, 0.038008, -1.030025, 0.040623, -0.000138, -0.007564, -0.004642, 5.141674, -40.892712, -15.063738
2020-05-11 13:24:45.972112, -0.052972, -1.034402, -0.025719, 0.006276, -0.012756, 0.000398, 5.614184, -40.462746, -14.898841
2020-05-11 13:24:46.024919, 0.035246, -1.027066, 0.042814, 0.005970, -0.001150, -0.001893, 6.098593, -39.960205, -15.318974
2020-05-11 13:24:46.077715, -0.043421, -1.020778, 0.063019, -0.002582, 0.002363, 0.000398, 6.542120, -39.411804, -15.254117
2020-05-11 13:24:46.130472, 0.019470, -1.026573, 0.089005, 0.000014, -0.003135, 0.002688, 6.936141, -38.808414, -15.405620
2020-05-11 13:24:46.183281, -0.069530, -1.033601, 0.058454, 0.006734, 0.003890, -0.002504, 7.178558, -38.270813, -15.436749
2020-05-11 13:24:46.236073, -0.011296, -1.035327, 0.022791, 0.012232, -0.009549, -0.004489, 7.607692, -37.608978, -15.964310
2020-05-11 13:24:46.288864, 0.009588, -1.025155, -0.006642, -0.005301, 0.004498, 0.004666, 7.844599, -36.920944, -16.182972
2020-05-11 13:24:46.341567, -0.081933, -1.016710, -0.013909, 0.007833, 0.009232, -0.007704, 8.146124, -36.163158, -16.508987
2020-05-11 13:24:46.394426, 0.027204, -1.019730, 0.078964, -0.005301, 0.019617, 0.000237, 8.174544, -35.337372, -16.307821
2020-05-11 13:24:46.447373, 0.024013, -1.021148, 0.072817, 0.001372, 0.000067, -0.001985, 8.242081, -34.560867, -16.283449
2020-05-11 13:24:46.500247, 0.032729, -1.029409, 0.061984, 0.015793, -0.024736, -0.008415, 8.150510, -33.866478, -16.255234
2020-05-11 13:24:46.553000, 0.046479, -1.024600, 0.066122, 0.012757, -0.003244, -0.013154, 7.909253, -33.188992, -16.563892
2020-05-11 13:24:46.605862, 0.084474, -1.024477, 0.053525, -0.006859, -0.001512, 0.002786, 7.693848, -32.396950, -16.941568
2020-05-11 13:24:46.658673, -0.027049, -1.027868, -0.001434, -0.001514, -0.004261, 0.000037, 7.325523, -31.806009, -17.025795
2020-05-11 13:24:46.711488, -0.002676, -1.018189, 0.041231, 0.002151, -0.000138, -0.003781, 6.879664, -31.314960, -17.020536
2020-05-11 13:24:46.764254, -0.012475, -1.015045, 0.080059, 0.004736, -0.022572, -0.007493, 6.377377, -30.879431, -17.129646
2020-05-11 13:24:46.817001, -0.060290, -1.019545, 0.036180, -0.005190, 0.024465, -0.002148, 5.734746, -30.689575, -17.292477
2020-05-11 13:24:46.869766, 0.030826, -1.036868, 0.051516, 0.011609, -0.012798, -0.003676, 5.310243, -30.513296, -17.605789
2020-05-11 13:24:46.922605, -0.024754, -1.011162, 0.055472, -0.007481, 0.009651, 0.001364, 4.774639, -30.408865, -17.472910
2020-05-11 13:24:46.975379, -0.065189, -1.024724, 0.037276, 0.006941, -0.005729, -0.008572, 4.262156, -30.191147, -17.378229
2020-05-11 13:24:47.028135, -0.007637, -1.025710, 0.055472, 0.003428, -0.000231, -0.001853, 3.936170, -30.126751, -17.348972
2020-05-11 13:24:47.080844, -0.022025, -1.026635, 0.047500, 0.002280, -0.007014, -0.004448, 3.820982, -30.111826, -17.392395
2020-05-11 13:24:47.133611, -0.035297, -1.019607, 0.043605, -0.000010, -0.001465, 0.002048, 3.532830, -30.142578, -17.334156
2020-05-11 13:24:47.186369, 0.017445, -1.030703, 0.043361, 0.010527, 0.000978, -0.001312, 3.375110, -29.978117, -17.180059
2020-05-11 13:24:47.239166, -0.027421, -1.011162, 0.048839, -0.014625, -0.000826, 0.004046, 3.226533, -29.828251, -17.103271
2020-05-11 13:24:47.291955, -0.007761, -1.035450, 0.035998, 0.014798, 0.003335, -0.002141, 3.068471, -29.860828, -17.105762
2020-05-11 13:24:47.344809, 0.008053, -1.033108, 0.037762, 0.003970, -0.000024, -0.015947, 2.891622, -29.691729, -17.302425
2020-05-11 13:24:47.397551, -0.011296, -1.037608, 0.036667, 0.015205, -0.001352, -0.010100, 2.582143, -29.672327, -17.186636
2020-05-11 13:24:47.450334, -0.006025, -1.026881, 0.044153, -0.018222, 0.001498, 0.014742, 2.233760, -29.614113, -17.282864
2020-05-11 13:24:47.503193, -0.006087, -1.018621, 0.046526, -0.022191, 0.001153, 0.018532, 1.943853, -29.659023, -17.255247
2020-05-11 13:24:47.556002, -0.030956, -1.022998, 0.047439, -0.005508, 0.000672, 0.002709, 1.863128, -29.633965, -17.392958
2020-05-11 13:24:47.608816, -0.039390, -1.017758, 0.046770, -0.005177, -0.005994, 0.004390, 1.972147, -29.748091, -17.238724
2020-05-11 13:24:47.661629, -0.024134, -1.017758, 0.040623, -0.017257, 0.005425, 0.011477, 2.064963, -29.924774, -17.408794
2020-05-11 13:24:47.714355, -0.054274, -1.022628, 0.057359, 0.000590, -0.000808, -0.002930, 2.139215, -30.139307, -17.321125
2020-05-11 13:24:47.767146, -0.026552, -1.020655, 0.029668, -0.003858, 0.005714, 0.004106, 2.321818, -30.256044, -17.495054
2020-05-11 13:24:47.819947, 0.008544, -1.041306, 0.025104, 0.010147, -0.008796, -0.002379, 2.411899, -30.087187, -17.486015
2020-05-11 13:24:47.872710, -0.069964, -1.002223, 0.065514, -0.007415, 0.013959, 0.011213, 2.668765, -29.952101, -17.650211
2020-05-11 13:24:47.925466, 0.026713, -1.052587, -0.009791, 0.012896, -0.018111, -0.008029, 2.885457, -29.770845, -17.560747
2020-05-11 13:24:47.978231, -0.031142, -1.010977, 0.078172, -0.007873, 0.007850, 0.013199, 3.277211, -29.631941, -17.805880
2020-05-11 13:24:48.031003, -0.082057, -1.033108, 0.026991, 0.010758, -0.001924, -0.002379, 3.517814, -29.411039, -17.755014
2020-05-11 13:24:48.083770, -0.043483, -1.019299, 0.041962, 0.000361, 0.008179, 0.005230, 4.068696, -29.411182, -17.871222
2020-05-11 13:24:48.136538, 0.001851, -1.013628, 0.023339, 0.004926, -0.001542, 0.003727, 4.683002, -29.435692, -17.760799
2020-05-11 13:24:48.191025, -0.056941, -1.027991, 0.040501, 0.002635, 0.004567, -0.004978, 5.090447, -29.376015, -17.678274
2020-05-11 13:24:48.243823, -0.043607, -1.012703, 0.039649, -0.017235, 0.027149, 0.013936, 5.427603, -29.462446, -17.690702
2020-05-11 13:24:48.296623, -0.002242, -1.029594, 0.048048, -0.002488, -0.009038, -0.004981, 5.842928, -29.745049, -17.720984
2020-05-11 13:24:48.349314, -0.031390, -1.006723, 0.107871, -0.006154, 0.034944, 0.006167, 6.337588, -30.202885, -17.495333
2020-05-11 13:24:48.402095, 0.048750, -1.043156, 0.012811, 0.008202, -0.018354, 0.000669, 6.811716, -31.038759, -17.352585
2020-05-11 13:24:48.454859, -0.031762, -1.000805, 0.021026, -0.013484, 0.006539, 0.004945, 7.095818, -31.780643, -17.223858
2020-05-11 13:24:48.507641, 0.030949, -1.036621, 0.018714, -0.002946, -0.003693, 0.001891, 7.412699, -32.758373, -17.123783
2020-05-11 13:24:48.560413, 0.069374, -1.018498, 0.064662, 0.001940, 0.002110, -0.002080, 7.593405, -33.735722, -17.116362
2020-05-11 13:24:48.613193, -0.069034, -1.018251, 0.076347, -0.014095, 0.016465, 0.004792, 7.637169, -34.761551, -16.979675
2020-05-11 13:24:48.666011, -0.058677, -1.022320, 0.091074, -0.007572, 0.020050, 0.002713, 7.520980, -35.637104, -16.643694
2020-05-11 13:24:48.718807, 0.029844, -1.040936, 0.073608, 0.001896, 0.018217, -0.001868, 7.355229, -36.587593, -16.700329
2020-05-11 13:24:48.771711, -0.035669, -1.005121, 0.080607, -0.008489, -0.001941, 0.007142, 7.060229, -37.579739, -16.280752
2020-05-11 13:24:48.824503, 0.030028, -1.031012, 0.053890, -0.002533, 0.015010, 0.002103, 6.785028, -38.330765, -16.314093
2020-05-11 13:24:48.877235, 0.004208, -1.031381, 0.031555, -0.000824, -0.006010, 0.001147, 6.312868, -39.096252, -16.122850
2020-05-11 13:24:48.930032, 0.011797, -1.019299, 0.090101, -0.004948, -0.003567, 0.003896, 5.716740, -39.604965, -15.908841
2020-05-11 13:24:48.982751, 0.000921, -1.025402, 0.082128, 0.000532, 0.005853, 0.001109, 5.251037, -40.170502, -15.874193
2020-05-11 13:24:49.035735, 0.028862, -1.021456, 0.025773, 0.001295, -0.008503, 0.003399, 4.861675, -40.629032, -15.861002
2020-05-11 13:24:49.088559, 0.010140, -1.030149, 0.052551, -0.001553, 0.003886, 0.002400, 4.432585, -40.953163, -15.998631
2020-05-11 13:24:49.141500, 0.025240, -1.021950, 0.059063, -0.001649, -0.013073, -0.001370, 4.201313, -41.224667, -16.041908
2020-05-11 13:24:49.194259, 0.031870, -1.030827, 0.003229, -0.005619, -0.013684, 0.002447, 3.753096, -41.539448, -15.954497
2020-05-11 13:24:49.247212, -0.027359, -1.042539, 0.040866, 0.010416, 0.019303, -0.001218, 3.293722, -41.876656, -16.087955
2020-05-11 13:24:49.300127, 0.018672, -1.005675, 0.108541, 0.004002, 0.026175, -0.002592, 2.864623, -42.024448, -16.101746
2020-05-11 13:24:49.352950, 0.064525, -1.012210, 0.008740, -0.008063, -0.002688, 0.001226, 2.846143, -42.160976, -16.455629
2020-05-11 13:24:49.405920, 0.093621, -1.034340, 0.054438, 0.000184, 0.001588, 0.002142, 2.584960, -42.239704, -16.692247
2020-05-11 13:24:49.458743, 0.040279, -1.018251, 0.046283, 0.005224, -0.001314, -0.001676, 2.538413, -42.394169, -17.015196
2020-05-11 13:24:49.511566, 0.080362, -1.025895, 0.024252, 0.002097, 0.000354, 0.000152, 2.372376, -42.426258, -16.971380
2020-05-11 13:24:49.564391, -0.109283, -1.017943, 0.078538, 0.002402, -0.003616, 0.005038, 2.413146, -42.470230, -16.994438
2020-05-11 13:24:49.617215, 0.024688, -1.021333, 0.068496, -0.000041, 0.001118, 0.000152, 2.490562, -42.718864, -17.044846
2020-05-11 13:24:49.670035, 0.032361, -1.025155, 0.048595, -0.000040, 0.028686, 0.002508, 2.681295, -42.954365, -16.785902
2020-05-11 13:24:49.722872, 0.008360, -1.023737, 0.058454, -0.005205, -0.002681, 0.000506, 2.833881, -43.057381, -16.909977
2020-05-11 13:24:49.775764, 0.004146, -1.017881, 0.067401, -0.002227, -0.000082, 0.003146, 2.978350, -43.359348, -16.718685
2020-05-11 13:24:49.828558, 0.014130, -1.027128, 0.047135, 0.002129, -0.005246, 0.002303, 2.920326, -43.728996, -16.827148
2020-05-11 13:24:49.881411, 0.056484, -1.015539, 0.016766, -0.003980, 0.010637, 0.002150, 2.812306, -44.055210, -16.672760
2020-05-11 13:24:49.934360, -0.009684, -1.017758, 0.041292, -0.002148, -0.006926, 0.000929, 2.765090, -44.425961, -16.453367
2020-05-11 13:24:49.987262, 0.060044, -1.011963, 0.060950, 0.000449, -0.019754, 0.000471, 2.452917, -44.838436, -16.611990
2020-05-11 13:24:50.040148, 0.005882, -1.021087, 0.056324, -0.002453, -0.015936, 0.001692, 2.007179, -45.144020, -16.497728
2020-05-11 13:24:50.092978, 0.023276, -1.025278, 0.024921, -0.001485, -0.012157, 0.000455, 1.644988, -45.418983, -16.720116
2020-05-11 13:24:50.145880, 0.055072, -1.029717, 0.061315, -0.003503, 0.017478, 0.001178, 1.232036, -45.523075, -16.825388
2020-05-11 13:24:50.198693, 0.145243, -1.038286, 0.046039, -0.001517, 0.000527, -0.000349, 0.716874, -45.520966, -16.775951
2020-05-11 13:24:50.251540, -0.045778, -1.015600, 0.067096, 0.003217, -0.017952, 0.001331, 0.153544, -45.647354, -16.669575
2020-05-11 13:24:50.304360, 0.028678, -1.023737, 0.046587, -0.003655, -0.001153, -0.003862, 0.038881, -45.461823, -16.587379
2020-05-11 13:24:50.357144, 0.029967, -1.014306, 0.039406, 0.001633, -0.000820, 0.004829, -0.226450, -45.410976, -16.483850
2020-05-11 13:24:50.409952, -0.005281, -1.016278, 0.064114, -0.003883, 0.005113, -0.001089, -0.472315, -45.217831, -16.586981
2020-05-11 13:24:50.462784, -0.001250, -1.038656, 0.039406, 0.009385, 0.004204, -0.001643, -0.557007, -45.106007, -16.654959
2020-05-11 13:24:50.515637, 0.005200, -1.023922, 0.050421, -0.003476, -0.003022, -0.003360, -0.663960, -44.986053, -16.389732
2020-05-11 13:24:50.568438, 0.003464, -1.022504, 0.052612, -0.006756, -0.003512, -0.000591, -0.984723, -44.975471, -16.407087
2020-05-11 13:24:50.621247, 0.015603, -1.024970, 0.047135, 0.004837, -0.003985, -0.004262, -1.185333, -45.003601, -16.330900
2020-05-11 13:24:50.674049, 0.041629, -1.026326, 0.049204, -0.003739, -0.003114, -0.002053, -1.144221, -44.934624, -16.130486
2020-05-11 13:24:50.726896, 0.089078, -1.030457, 0.059793, 0.005686, 0.007914, -0.000361, -1.200932, -44.940430, -16.007925
2020-05-11 13:24:50.779684, 0.038622, -1.032737, 0.036789, 0.000494, -0.015299, -0.002651, -1.201500, -44.926777, -15.889539
2020-05-11 13:24:50.832489, 0.028985, -1.024600, 0.018288, 0.003725, -0.030142, -0.000053, -1.112355, -45.239090, -16.158020
2020-05-11 13:24:50.885374, 0.065507, -1.006847, 0.085901, 0.003419, 0.010480, -0.003413, -0.968239, -45.549927, -16.192663
2020-05-11 13:24:50.938205, -0.017374, -1.032183, 0.013419, 0.018080, -0.028920, -0.000053, -0.690546, -45.713215, -16.200039
2020-05-11 13:24:50.990947, -0.033870, -1.019422, 0.001897, -0.002304, 0.013379, -0.001380, -0.412391, -45.996315, -16.304728
2020-05-11 13:24:51.043730, 0.049548, -1.035943, 0.058576, -0.000624, 0.018419, -0.003060, 0.050932, -45.978844, -16.670315
2020-05-11 13:24:51.096502, -0.068476, -1.014675, 0.027599, -0.006733, 0.012463, -0.003671, 0.337591, -45.757507, -16.669325
2020-05-11 13:24:51.149297, -0.009250, -1.012271, 0.066974, 0.010371, -0.003573, -0.004129, 0.790918, -45.397476, -16.677250
2020-05-11 13:24:51.201991, -0.092848, -1.003271, 0.127955, -0.004442, 0.002231, -0.002297, 1.265580, -44.902092, -16.535408
2020-05-11 13:24:51.254840, 0.000673, -1.040258, 0.008377, 0.002583, 0.010019, -0.002602, 1.522109, -44.450897, -16.715393
2020-05-11 13:24:51.307549, -0.008381, -1.033970, 0.040927, 0.011945, -0.006849, -0.001187, 1.682533, -44.065544, -16.632750
2020-05-11 13:24:51.360322, 0.036842, -1.021395, 0.056811, -0.003511, 0.005632, 0.000182, 1.592471, -43.604794, -16.348721
2020-05-11 13:24:51.413052, -0.032196, -1.021395, 0.050238, -0.000915, -0.013763, -0.001651, 1.565222, -43.163006, -16.487595
2020-05-11 13:24:51.465836, 0.036473, -1.025217, 0.074886, 0.000306, 0.015406, -0.000735, 1.694623, -42.797379, -16.372063
2020-05-11 13:24:51.518557, 0.080300, -1.027744, 0.071965, -0.002804, 0.013859, 0.000176, 1.994144, -42.718334, -16.369709
2020-05-11 13:24:51.571330, 0.045926, -1.016586, 0.171833, 0.010177, 0.019815, -0.004101, 1.964960, -42.581913, -16.132477
2020-05-11 13:24:51.624084, -0.022521, -1.004751, 0.054073, -0.002957, -0.001107, 0.000481, 1.947214, -42.308109, -15.628895
2020-05-11 13:24:51.677346, -0.015513, -1.031628, 0.004501, 0.000250, 0.023938, -0.002726, 2.067416, -42.217140, -15.269612
2020-05-11 13:24:51.730128, 0.004270, -1.024539, 0.042144, 0.002309, 0.008673, -0.007507, 2.370778, -42.199253, -15.118746
2020-05-11 13:24:51.783019, -0.028289, -1.021087, 0.022791, 0.005037, -0.013612, -0.003271, 2.759068, -42.184944, -14.701689
2020-05-11 13:24:51.835809, 0.035552, -1.022073, 0.035267, 0.011451, 0.001660, -0.000216, 3.192900, -41.978336, -14.676029
2020-05-11 13:24:51.888620, 0.022232, -1.025895, 0.075738, 0.011364, -0.010501, -0.009214, 3.780765, -41.745964, -14.812400
2020-05-11 13:24:51.941386, -0.034118, -1.013628, 0.065818, 0.008616, -0.001338, -0.003411, 4.346257, -41.334412, -14.723921
2020-05-11 13:24:51.994191, -0.038336, -1.015600, 0.027356, -0.001563, 0.002840, -0.001674, 4.961051, -41.102749, -14.769359
2020-05-11 13:24:52.046999, -0.042615, -1.012456, 0.036363, 0.006018, 0.012193, -0.003980, 5.520086, -40.618580, -14.971324
2020-05-11 13:24:52.099811, -0.007389, -1.009990, 0.038858, 0.008327, -0.008733, -0.001633, 5.950514, -40.103168, -14.978904
2020-05-11 13:24:52.152567, -0.141346, -0.999018, 0.077746, 0.004357, -0.000792, -0.003160, 6.474057, -39.526173, -15.048888
2020-05-11 13:24:52.205466, 0.117007, -1.030149, 0.014028, 0.006800, 0.006233, -0.003007, 6.876091, -38.686451, -15.235625
2020-05-11 13:24:52.258224, 0.126951, -1.044512, 0.010924, 0.001702, -0.004899, -0.002464, 7.298518, -37.874401, -15.344337
2020-05-11 13:24:52.311045, 0.000363, -1.020593, 0.069835, -0.003949, 0.017550, -0.000021, 7.630859, -37.060097, -15.274408
2020-05-11 13:24:52.363799, -0.006149, -1.026142, -0.010518, -0.002727, -0.012077, 0.000590, 7.823933, -36.445244, -15.529356
2020-05-11 13:24:52.416624, 0.047768, -1.033046, 0.098499, 0.001549, 0.019994, -0.005213, 7.911191, -35.416672, -15.744937
2020-05-11 13:24:52.469392, -0.000939, -1.033724, 0.063566, 0.013614, 0.004569, -0.008115, 7.807398, -34.148602, -15.868008
2020-05-11 13:24:52.522192, -0.077096, -1.019792, 0.026199, -0.007919, 0.005486, 0.001812, 7.679564, -33.103653, -16.100119
2020-05-11 13:24:52.575001, -0.050863, -1.021456, 0.014393, 0.008731, 0.009141, -0.009616, 7.437296, -32.371372, -16.346823
2020-05-11 13:24:52.627812, 0.018181, -1.031690, 0.023704, 0.005982, -0.012545, -0.003812, 6.969082, -31.584288, -16.422153
2020-05-11 13:24:52.680587, 0.019470, -1.023799, 0.055107, 0.002092, 0.001750, -0.002800, 6.712111, -31.241262, -16.557962
2020-05-11 13:24:52.733408, -0.021715, -1.013258, 0.030277, -0.005949, 0.000068, -0.000197, 6.013734, -30.789978, -16.625933
2020-05-11 13:24:52.786227, -0.015265, -1.038594, 0.033502, -0.009884, -0.011744, 0.003796, 5.611833, -30.428951, -16.848829
2020-05-11 13:24:52.839049, -0.077902, -1.025648, 0.022365, 0.009205, -0.020144, -0.011323, 5.211911, -30.353586, -16.966131
2020-05-11 13:24:52.891796, -0.027793, -1.022936, 0.037032, -0.004387, -0.001970, 0.002116, 4.869574, -30.201813, -17.228493
2020-05-11 13:24:52.944616, -0.018242, -1.019792, 0.035632, 0.002255, -0.000281, -0.001498, 4.405304, -30.074295, -17.028702
2020-05-11 13:24:52.997422, 0.085027, -1.037546, 0.025408, -0.000188, -0.004404, -0.002261, 4.017089, -30.021070, -17.298887
2020-05-11 13:24:53.050237, -0.003978, -1.006723, 0.070383, -0.011795, -0.010360, 0.002931, 3.801716, -29.947998, -17.053057
2020-05-11 13:24:53.102990, 0.032054, -1.031875, 0.049265, -0.002839, 0.004010, 0.002981, 3.422218, -30.035910, -16.876732
2020-05-11 13:24:53.155806, -0.009002, -1.063067, 0.041779, 0.045724, -0.010651, -0.031227, 3.225020, -30.124537, -16.787971
2020-05-11 13:24:53.208586, -0.005467, -1.019361, 0.045492, -0.015293, 0.000481, 0.011887, 2.927261, -30.091759, -16.638514
2020-05-11 13:24:53.261465, -0.008754, -1.035450, 0.038006, 0.008542, -0.001750, -0.004601, 2.666654, -30.096029, -16.501514
2020-05-11 13:24:53.314209, -0.005281, -1.011100, 0.044092, -0.020530, -0.001101, 0.014744, 2.502969, -30.178730, -16.313465
2020-05-11 13:24:53.367124, -0.006397, -1.029347, 0.042388, -0.003459, 0.000707, 0.002738, 2.422420, -30.330275, -16.209515
2020-05-11 13:24:53.420423, -0.004660, -1.027251, 0.044579, -0.006296, 0.002160, 0.004566, 2.469981, -30.347830, -16.321024
2020-05-11 13:24:53.473290, -0.034925, -1.021087, 0.042327, -0.013173, -0.004850, 0.006037, 2.401630, -30.502146, -16.526453
2020-05-11 13:24:53.526081, 0.011920, -1.019484, 0.027051, -0.010371, 0.019965, 0.002441, 2.598949, -30.338957, -16.539709
2020-05-11 13:24:53.578881, 0.026713, -1.020285, 0.052003, 0.005475, -0.001664, 0.000588, 2.661605, -30.415764, -16.573557
2020-05-11 13:24:53.631627, -0.041995, -1.015539, 0.051273, 0.002115, 0.007499, -0.000634, 2.683729, -30.288147, -16.667463
2020-05-11 13:24:53.684442, 0.041691, -1.037238, 0.006560, 0.007918, -0.001816, -0.000786, 2.779829, -30.057980, -16.635084
2020-05-11 13:24:53.737183, -0.031080, -0.995504, 0.056081, -0.004146, 0.001849, 0.010056, 2.817508, -29.922636, -16.847433
2020-05-11 13:24:53.789995, 0.004952, -1.036560, 0.054925, 0.014791, 0.018648, 0.001504, 3.418852, -29.716780, -16.962109
2020-05-11 13:24:53.842769, -0.095205, -1.017758, 0.063871, -0.003383, -0.003649, 0.008835, 3.731927, -29.466713, -16.847555
2020-05-11 13:24:53.895647, 0.068638, -1.028731, 0.035876, 0.003948, 0.012844, -0.003230, 4.032787, -29.406931, -16.729763
2020-05-11 13:24:53.948409, 0.001231, -1.012888, 0.014575, -0.004146, 0.010859, 0.009140, 4.363075, -29.627451, -16.972570
2020-05-11 13:24:54.001261, -0.053220, -1.029039, 0.104463, 0.008682, 0.010554, -0.005979, 5.075305, -29.663595, -16.556656
2020-05-11 13:24:54.054028, 0.016708, -1.013751, 0.065636, -0.017891, -0.003038, 0.014180, 5.533089, -30.149920, -16.534817
2020-05-11 13:24:54.106887, -0.026056, -1.031073, 0.045552, 0.009426, -0.001460, -0.005337, 6.190516, -30.679251, -16.476667
2020-05-11 13:24:54.159642, 0.098470, -1.027066, 0.085171, -0.000042, -0.015969, 0.001994, 6.789258, -31.316174, -16.409809
2020-05-11 13:24:54.212454, -0.000381, -1.034895, -0.006460, -0.002639, 0.018698, 0.003063, 7.049852, -32.026970, -16.144218
2020-05-11 13:24:54.265257, -0.044413, -1.010730, 0.066974, -0.005693, -0.005737, 0.004895, 7.359127, -32.766373, -15.989857
2020-05-11 13:24:54.318220, -0.008568, -1.033169, -0.007853, -0.005388, 0.004801, 0.001841, 7.365747, -33.601849, -15.851840
2020-05-11 13:24:54.370986, 0.019593, -1.030025, 0.017923, -0.004765, 0.004493, 0.002518, 7.275843, -34.325119, -15.886703
2020-05-11 13:24:54.423836, -0.038894, -1.025648, 0.043787, -0.001253, 0.005562, 0.000074, 7.254320, -35.251366, -15.586268
2020-05-11 13:24:54.476807, 0.031010, -1.027436, 0.036363, -0.007209, -0.003906, 0.006030, 7.169901, -36.144833, -15.569647
2020-05-11 13:24:54.529748, 0.086316, -1.025833, 0.028390, -0.004765, 0.016863, 0.001754, 6.956766, -36.829109, -15.300663
2020-05-11 13:24:54.582506, -0.018924, -1.021765, 0.068861, -0.001558, 0.003272, 0.000838, 6.730258, -37.632683, -15.065137
2020-05-11 13:24:54.635366, 0.037087, -1.030087, -0.010276, -0.008583, 0.023125, 0.005725, 6.543452, -38.342625, -14.984221
2020-05-11 13:24:54.688099, 0.047522, -1.025772, 0.053768, -0.002169, -0.004212, 0.000685, 6.158807, -38.904480, -15.186797
2020-05-11 13:24:54.740962, 0.007495, -1.019114, 0.049995, -0.007411, 0.009510, 0.005239, 5.739091, -39.457645, -14.901406
2020-05-11 13:24:54.793744, -0.025994, -1.030642, 0.013054, -0.005273, -0.004998, 0.002490, 5.123318, -40.003857, -15.198994
2020-05-11 13:24:54.846591, -0.064817, -1.037484, 0.041718, 0.000955, -0.012655, 0.002997, 4.681099, -40.568901, -15.210433
2020-05-11 13:24:54.899346, -0.013095, -1.020285, 0.131910, 0.006148, 0.004449, 0.006663, 4.142525, -40.947750, -15.164379
2020-05-11 13:24:54.952255, -0.058119, -1.020039, 0.054499, -0.003473, -0.006699, 0.001012, 3.745265, -41.104458, -15.426805
2020-05-11 13:24:55.005070, -0.084724, -1.018189, 0.049508, 0.002547, -0.008690, 0.001421, 3.287457, -41.339603, -15.491470
2020-05-11 13:24:55.057923, 0.025486, -1.027251, 0.142865, -0.014710, -0.018770, -0.000259, 2.966011, -41.527718, -15.557730
2020-05-11 13:24:55.110681, -0.044909, -1.016278, 0.086327, -0.003714, -0.001513, 0.000352, 2.781654, -41.653816, -15.378295
2020-05-11 13:24:55.163821, -0.012785, -1.016956, 0.059428, 0.009991, 0.000309, 0.003441, 2.550169, -41.626621, -15.644426
2020-05-11 13:24:55.216603, 0.107063, -1.037484, 0.038310, 0.006937, 0.001531, 0.003441, 2.510580, -41.568272, -15.709149
2020-05-11 13:24:55.269510, 0.019777, -1.026881, 0.050238, -0.003448, -0.002287, 0.000234, 2.411709, -41.789940, -15.705723
2020-05-11 13:24:55.322461, 0.061272, -1.024107, 0.056872, -0.002004, -0.014464, 0.003178, 2.618213, -42.089249, -15.929613
2020-05-11 13:24:55.375313, 0.032299, -1.025525, 0.054316, 0.001901, -0.029335, 0.002334, 2.576215, -42.267708, -16.097103
2020-05-11 13:24:55.428047, -0.027545, -1.011223, 0.049265, -0.000084, 0.001056, 0.000960, 2.565017, -42.605637, -16.472254
2020-05-11 13:24:55.480882, -0.034118, -1.020224, 0.050238, 0.000214, 0.015488, 0.002404, 2.662459, -42.985756, -16.624193
2020-05-11 13:24:55.533661, -0.010800, -1.013997, 0.054559, 0.002273, -0.005401, -0.000038, 2.914012, -43.356937, -16.644051
2020-05-11 13:24:55.586547, 0.094541, -1.027251, 0.062045, 0.011894, -0.005401, 0.002253, 2.941655, -43.702675, -16.482700
2020-05-11 13:24:55.639332, 0.048688, -1.034525, 0.042509, -0.005362, 0.012009, 0.000573, 2.862969, -44.040253, -16.847559
2020-05-11 13:24:55.692314, 0.076863, -1.022689, 0.047378, 0.002640, -0.007140, 0.006606, 2.643221, -44.621353, -16.950586
2020-05-11 13:24:55.745116, -0.031762, -1.014860, 0.050056, -0.006370, 0.010423, -0.001488, 2.226622, -44.897171, -16.719212
2020-05-11 13:24:55.798154, -0.050057, -1.012826, 0.070017, -0.002614, 0.020852, -0.002176, 1.926943, -45.288589, -16.810137
2020-05-11 13:24:55.850970, 0.008114, -1.024415, 0.022487, 0.001509, 0.006038, 0.001184, 1.474400, -45.559032, -16.798616
2020-05-11 13:24:55.903850, 0.045865, -1.026635, 0.127163, 0.000898, -0.025574, -0.001718, 1.050765, -45.653412, -16.966637
2020-05-11 13:24:55.956717, 0.022723, -1.037484, 0.055655, 0.000745, 0.021921, 0.001184, 0.650257, -45.826496, -17.016794
2020-05-11 13:24:56.009687, 0.052924, -1.025340, 0.050969, -0.001937, -0.010845, 0.001882, 0.223451, -45.721012, -16.830288
2020-05-11 13:24:56.062586, -0.020475, -1.018867, 0.043301, -0.044850, -0.012677, 0.001424, 0.044406, -45.606133, -16.840887
2020-05-11 13:24:56.115477, -0.044661, -1.006723, 0.062775, 0.073269, -0.001035, -0.002905, -0.401230, -45.587414, -16.616924
2020-05-11 13:24:56.168366, 0.054888, -1.013196, 0.051151, -0.012710, 0.005837, 0.003815, -0.281739, -45.499252, -16.763174
2020-05-11 13:24:56.221188, -0.003854, -1.025648, 0.042327, -0.002631, 0.006906, -0.000614, -0.292546, -45.306747, -16.514076
2020-05-11 13:24:56.273983, 0.014253, -1.024662, 0.052795, -0.000624, 0.004905, -0.000593, -0.452391, -45.158844, -16.858131
2020-05-11 13:24:56.326899, 0.000115, -1.023429, 0.051395, 0.001907, -0.000426, -0.000426, -0.703468, -45.083210, -16.683020
2020-05-11 13:24:56.379663, 0.001417, -1.022566, 0.045005, 0.003467, -0.001002, 0.000179, -0.697129, -44.949520, -16.757938
2020-05-11 13:24:56.432560, 0.005200, -1.024354, 0.055107, -0.006244, -0.000674, -0.000270, -0.910458, -44.842567, -16.634827
2020-05-11 13:24:56.485315, 0.003526, -1.022073, 0.051760, 0.000607, -0.001832, -0.002623, -1.148321, -44.933868, -16.696140
2020-05-11 13:24:56.538209, 0.003340, -1.023121, 0.056385, 0.001620, -0.003838, -0.002093, -1.086612, -44.970318, -16.820736
2020-05-11 13:24:56.591813, 0.100986, -1.038532, 0.052673, 0.006202, -0.007961, -0.000107, -1.054044, -44.901897, -16.597898
2020-05-11 13:24:56.644651, 0.079134, -1.023922, 0.030825, -0.004488, -0.000783, -0.001634, -0.915990, -44.969135, -16.579432
2020-05-11 13:24:56.697566, 0.075083, -1.021087, 0.031068, -0.002807, -0.021396, -0.000565, -0.911947, -45.047321, -16.477493
2020-05-11 13:24:56.750405, 0.014928, -1.020409, 0.010741, 0.000552, -0.030712, -0.000260, -0.835912, -45.250141, -16.532501
2020-05-11 13:24:56.803274, 0.091288, -1.026820, 0.063445, 0.004676, -0.030101, 0.000351, -0.769484, -45.412399, -16.631714
2020-05-11 13:24:56.856132, 0.015480, -1.014675, 0.053951, -0.006778, -0.020022, -0.003467, -0.643542, -45.658081, -16.664595
2020-05-11 13:24:56.909292, 0.031256, -1.019484, 0.100507, -0.001585, 0.009451, -0.001176, -0.329989, -45.732651, -16.766443
2020-05-11 13:24:56.962057, -0.061344, -1.010792, 0.039893, -0.003418, 0.027471, -0.001634, 0.133654, -45.834999, -16.664873
2020-05-11 13:24:57.014907, -0.028165, -0.998093, 0.082128, -0.004487, 0.017239, -0.001481, 0.678169, -45.618038, -16.705650
2020-05-11 13:24:57.067799, 0.019409, -1.021272, 0.069348, 0.006661, 0.005785, -0.004688, 0.962580, -45.273701, -16.433191
2020-05-11 13:24:57.120602, -0.067421, -1.012025, 0.080911, -0.001891, 0.033733, -0.002092, 1.402910, -44.821369, -16.113531
2020-05-11 13:24:57.175303, -0.019793, -1.004997, 0.084684, 0.002385, 0.005632, -0.002855, 1.609573, -44.246044, -15.944968
2020-05-11 13:24:57.228151, -0.043731, -1.022443, 0.041110, -0.001739, 0.010366, -0.003008, 1.623703, -43.858971, -16.007694
2020-05-11 13:24:57.280945, 0.037333, -1.016217, 0.103855, -0.007236, 0.007159, 0.000504, 1.612608, -43.372448, -16.078213
2020-05-11 13:24:57.333852, -0.041250, -1.030827, 0.026321, 0.001316, -0.009793, -0.003313, 1.710132, -43.056412, -15.989352
2020-05-11 13:24:57.386725, 0.065016, -1.024970, 0.105133, -0.004946, 0.017696, -0.001175, 1.989751, -42.998745, -16.069351
2020-05-11 13:24:57.439575, 0.007743, -1.018436, 0.075799, -0.006778, 0.018918, -0.003161, 2.163046, -42.794044, -16.188555
2020-05-11 13:24:57.492387, 0.003216, -1.022936, 0.057785, 0.005591, 0.016319, -0.003466, 2.223282, -42.715668, -15.949782
2020-05-11 13:24:57.545241, 0.029721, -1.022443, 0.051638, 0.002994, 0.005934, -0.003923, 2.349871, -42.774940, -15.947623
2020-05-11 13:24:57.598143, -0.059359, -1.021333, 0.059428, -0.004642, 0.017693, -0.004381, 2.467942, -42.596703, -16.294559
2020-05-11 13:24:57.651157, -0.078584, -1.013874, 0.024495, -0.004488, -0.016666, -0.001021, 2.623999, -42.295547, -16.278650
2020-05-11 13:24:57.704078, 0.038069, -1.026018, 0.062714, 0.010631, -0.004448, -0.008199, 2.905644, -42.219288, -16.210718
2020-05-11 13:24:57.756939, -0.108725, -1.021087, 0.008861, 0.009714, 0.003646, -0.005450, 3.242961, -41.950924, -15.961702
2020-05-11 13:24:57.809861, -0.028847, -1.012456, 0.046830, 0.000551, -0.010099, -0.000563, 3.837614, -41.711838, -15.774112
2020-05-11 13:24:57.862638, 0.081712, -1.036251, 0.050299, 0.007424, 0.002118, -0.011253, 4.374936, -41.435184, -15.359636
2020-05-11 13:24:57.915505, 0.068822, -1.031505, 0.063384, -0.010290, -0.000630, -0.001021, 4.759994, -40.793045, -15.025150
2020-05-11 13:24:57.968339, 0.003340, -1.021395, 0.066488, -0.006319, -0.003379, 0.003713, 5.224841, -40.303730, -14.859255
2020-05-11 13:24:58.021158, 0.004084, -1.032553, 0.040258, 0.006661, -0.002615, -0.008350, 5.647118, -39.790302, -14.671333
2020-05-11 13:24:58.073993, 0.010877, -1.023244, 0.074399, 0.002690, -0.002767, -0.003463, 6.908939, -38.867264, -14.747627
2020-05-11 13:24:58.126870, -0.126772, -1.018744, 0.011898, -0.004030, 0.000134, -0.004226, 7.470397, -37.958065, -14.956844
2020-05-11 13:24:58.179714, -0.250681, -1.019730, 0.030460, 0.021016, -0.020177, -0.012320, 7.796363, -37.114830, -14.897587
2020-05-11 13:24:58.232531, -0.014149, -1.006415, 0.026443, -0.004488, 0.016017, 0.005242, 8.073936, -36.226784, -15.309254
2020-05-11 13:24:58.285361, 0.007123, -1.034833, 0.078659, 0.014602, 0.004105, -0.011404, 8.178393, -35.339481, -15.632776
2020-05-11 13:24:58.338156, 0.056668, -1.030272, 0.038006, -0.005099, 0.003952, 0.003562, 8.345960, -34.471073, -15.967138
2020-05-11 13:24:58.390938, 0.067165, -1.015662, 0.090527, -0.002350, 0.003647, -0.000866, 8.289613, -33.837334, -16.170706
2020-05-11 13:24:58.443739, -0.011110, -1.019792, 0.048839, 0.005439, 0.004563, -0.001783, 8.283735, -33.037601, -16.682222
2020-05-11 13:24:58.496510, -0.016506, -1.030272, 0.058211, 0.005132, -0.005515, -0.005294, 8.116633, -32.196556, -17.164076
2020-05-11 13:24:58.549277, -0.128198, -1.032183, 0.010315, -0.010750, -0.012235, 0.002189, 7.786952, -31.542015, -17.296776
2020-05-11 13:24:58.602055, -0.083484, -1.031628, 0.020235, -0.002809, 0.009144, -0.001324, 7.327207, -30.969591, -17.269283
2020-05-11 13:24:58.669842, -0.005963, -1.023552, 0.047500, -0.006321, 0.000592, -0.000865, 6.847411, -30.731209, -17.136879
2020-05-11 13:24:58.722646, 0.009158, -1.027744, 0.051821, 0.000704, -0.015746, -0.002545, 6.317974, -30.381935, -16.998995
2020-05-11 13:24:58.775546, -0.017622, -1.003518, 0.075373, -0.002045, 0.013573, -0.008652, 5.883224, -30.084219, -17.086264
2020-05-11 13:24:58.828348, -0.021219, -1.040073, 0.019383, 0.024070, -0.013458, -0.013081, 5.367425, -29.919231, -17.199661
2020-05-11 13:24:58.881195, -0.021467, -1.016093, 0.047317, -0.003113, 0.005936, 0.000358, 4.904385, -29.951908, -17.421127
2020-05-11 13:24:58.934003, 0.063789, -1.032737, 0.046526, 0.003759, -0.002616, -0.003918, 4.601153, -29.831680, -17.514040
2020-05-11 13:24:58.986828, -0.057313, -1.016956, 0.058454, 0.008493, -0.007656, -0.010637, 4.151368, -29.717201, -17.387888
2020-05-11 13:24:59.039644, -0.014459, -1.026881, 0.043361, -0.004334, -0.004448, 0.002343, 3.774740, -29.796383, -17.472921
2020-05-11 13:24:59.092415, -0.008381, -1.023799, 0.035876, 0.035824, -0.001851, -0.029570, 3.535037, -29.786545, -17.540947
2020-05-11 13:24:59.145196, -0.013591, -1.039025, 0.038919, 0.008945, -0.000171, -0.008646, 3.253675, -29.626204, -17.505297
2020-05-11 13:24:59.197978, -0.006397, -1.026820, 0.042570, -0.011365, 0.001661, 0.005861, 3.207785, -29.674795, -17.380894
2020-05-11 13:24:59.250769, -0.006831, -1.027313, 0.042509, -0.013806, 0.000592, 0.006013, 3.092673, -29.725866, -17.304617
2020-05-11 13:24:59.303543, -0.005467, -1.020532, 0.046587, -0.024339, 0.000439, 0.015937, 3.011784, -29.650846, -17.246500
2020-05-11 13:24:59.356370, -0.005281, -1.029101, 0.043909, -0.013036, 0.001202, 0.007231, 2.801472, -29.615225, -17.051825
2020-05-11 13:24:59.409150, -0.049189, -1.006477, 0.050421, -0.019447, -0.000325, 0.015017, 2.588423, -29.568432, -16.864124
2020-05-11 13:24:59.461934, -0.036475, -1.031320, 0.042631, -0.001273, 0.000897, -0.003462, 2.529984, -29.939615, -16.786602
2020-05-11 13:24:59.514780, -0.047638, -1.015662, 0.050117, -0.000510, 0.007615, 0.003563, 2.567233, -29.919426, -17.035475
2020-05-11 13:24:59.567614, -0.034553, -1.033785, 0.056994, 0.003002, 0.010515, -0.002545, 2.535431, -29.891077, -17.054430
2020-05-11 13:24:59.620391, -0.100849, -1.031751, 0.024982, -0.011353, 0.022274, 0.005549, 2.806790, -29.691534, -17.165478
2020-05-11 13:24:59.673695, -0.109345, -1.029902, 0.085110, 0.010180, -0.014989, -0.007280, 3.147078, -29.580688, -17.341480
2020-05-11 13:24:59.726526, -0.092786, -1.014799, 0.034963, -0.012575, -0.000023, 0.005396, 3.648907, -29.467617, -17.415457
2020-05-11 13:24:59.779339, -0.046708, -1.036744, 0.030460, -0.004328, -0.019265, 0.007228, 4.100771, -29.364964, -17.643158
2020-05-11 13:24:59.832161, -0.054088, -1.006970, 0.046891, 0.008193, -0.007352, 0.001883, 4.742262, -29.447508, -17.534765
2020-05-11 13:24:59.884985, -0.038212, -1.019854, 0.012628, -0.011658, 0.032349, -0.000255, 5.378655, -29.641617, -17.651440
2020-05-11 13:24:59.937804, -0.001188, -1.034340, 0.013115, -0.006159, -0.017892, 0.006311, 5.994169, -29.931076, -17.727345
2020-05-11 13:24:59.990603, -0.056879, -1.005059, 0.068253, -0.003258, 0.005932, 0.001271, 6.503381, -30.437090, -17.692186
2020-05-11 13:25:00.043390, -0.016568, -1.007771, 0.091805, -0.019595, 0.002725, 0.006462, 7.061950, -31.110247, -17.388035
2020-05-11 13:25:00.096192, -0.042987, -1.030703, 0.051273, 0.005450, -0.003689, -0.001784, 7.531205, -31.941513, -16.923893
2020-05-11 13:25:00.148964, 0.015971, -1.024477, 0.047926, -0.014250, 0.007306, 0.006004, 7.794610, -32.844379, -16.633936
2020-05-11 13:25:00.201769, -0.027049, -1.028607, 0.034537, -0.009056, 0.014634, 0.007072, 7.803733, -33.700848, -16.590828
2020-05-11 13:25:00.254546, -0.020661, -1.039950, 0.011228, -0.006917, 0.006081, 0.002643, 7.917432, -34.654366, -16.039158
2020-05-11 13:25:00.307352, -0.020909, -1.028176, 0.067705, -0.005542, 0.003943, 0.002490, 7.605191, -35.764812, -15.693705
2020-05-11 13:25:00.360129, -0.057685, -1.006662, 0.044700, -0.017757, 0.023029, 0.006307, 7.103398, -36.848331, -15.492886
2020-05-11 13:25:00.413522, 0.084045, -1.034587, 0.062714, -0.004470, -0.001559, 0.000962, 6.595563, -37.861515, -15.529807
2020-05-11 13:25:00.466326, 0.032913, -1.028299, 0.016097, -0.004470, -0.000031, 0.000504, 6.211696, -38.818436, -15.646509
2020-05-11 13:25:00.519108, 0.003960, -1.020409, 0.070443, -0.012259, -0.013929, 0.004933, 5.501402, -39.596169, -15.774738
2020-05-11 13:25:00.571883, -0.021467, -1.026142, 0.061193, -0.002332, -0.011636, 0.000046, 5.134767, -40.169563, -15.888943
2020-05-11 13:25:00.624669, 0.043287, -1.010915, 0.006076, -0.006455, -0.005069, 0.001420, 4.662259, -40.762451, -15.942534
2020-05-11 13:25:00.677532, 0.030887, -1.018004, 0.079998, 0.001333, -0.020494, 0.001115, 4.379452, -41.065998, -16.113251
2020-05-11 13:25:00.730358, -0.019296, -1.026080, 0.050056, -0.006914, 0.000734, 0.003864, 3.946007, -41.296638, -15.999949
2020-05-11 13:25:00.783143, 0.017813, -1.039765, 0.056629, -0.001721, 0.005467, 0.003252, 3.644051, -41.554337, -16.115601
2020-05-11 13:25:00.835929, -0.025684, -1.015292, 0.013967, -0.014244, -0.016371, 0.001114, 3.324086, -41.687309, -15.897230
2020-05-11 13:25:00.888777, 0.039481, -1.041491, 0.031798, 0.001333, -0.019425, 0.001725, 3.219314, -41.702206, -15.940448
2020-05-11 13:25:00.941501, 0.040770, -1.033169, 0.040866, -0.003095, -0.013009, 0.003252, 3.006696, -41.628738, -15.722241
2020-05-11 13:25:00.994299, 0.034939, -1.006847, 0.066548, -0.012103, 0.001804, -0.000719, 2.741402, -41.649250, -15.864379
2020-05-11 13:25:01.047107, -0.122120, -1.022135, 0.082250, -0.001260, 0.056782, -0.001024, 2.557167, -41.708351, -15.760174
2020-05-11 13:25:01.099934, 0.012902, -1.029594, 0.010133, -0.000344, -0.000334, 0.001725, 2.566579, -41.767830, -16.115545
2020-05-11 13:25:01.152622, -0.003048, -1.025525, 0.039588, -0.001413, 0.006537, 0.000045, 2.658108, -41.949585, -16.100573
2020-05-11 13:25:01.205470, -0.077344, -1.012456, 0.065088, -0.004925, 0.003788, 0.000350, 2.664132, -42.357235, -16.251305
2020-05-11 13:25:01.258216, -0.010800, -1.002655, 0.094787, 0.005460, 0.018907, 0.000808, 2.780951, -42.915108, -16.586899
2020-05-11 13:25:01.311006, 0.083431, -1.039703, 0.045674, 0.002100, -0.017897, 0.000656, 2.600006, -43.391903, -16.518333
2020-05-11 13:25:01.363777, -0.033932, -1.026758, 0.025895, -0.002940, 0.005926, 0.000197, 2.628850, -43.736744, -16.492537
2020-05-11 13:25:01.416514, 0.107432, -1.042416, 0.045674, 0.000573, -0.014385, 0.000961, 2.545525, -44.146790, -16.681097
2020-05-11 13:25:01.469286, 0.029476, -1.014121, 0.026808, -0.000191, 0.011119, 0.001266, 2.394866, -44.523617, -16.730251
2020-05-11 13:25:01.522077, -0.017994, -1.024785, 0.066122, -0.005841, -0.013469, 0.000961, 2.162338, -45.038536, -17.115332
2020-05-11 13:25:01.574964, -0.006893, -1.018313, 0.055229, 0.003626, -0.004305, 0.001877, 1.903515, -45.395584, -17.034056
2020-05-11 13:25:01.627723, 0.039788, -1.020100, 0.050786, -0.000650, -0.000792, 0.001877, 1.522858, -45.723911, -16.803421
2020-05-11 13:25:01.680526, 0.049793, -1.014182, 0.054742, 0.001488, -0.003083, 0.001418, 1.134331, -45.785316, -16.755472
2020-05-11 13:25:01.733345, 0.076618, -1.025402, 0.023278, -0.002635, 0.001957, 0.002640, 0.952310, -45.810043, -16.635757
2020-05-11 13:25:01.786092, 0.032729, -1.027005, 0.054194, 0.002558, 0.022573, 0.003403, 0.722693, -45.842022, -16.188417
2020-05-11 13:25:01.838759, -0.040320, -1.011223, 0.057967, -0.004467, -0.007970, 0.000807, 0.561400, -45.770027, -16.199547
2020-05-11 13:25:01.891444, -0.142648, -0.995750, 0.049630, -0.004773, 0.012952, -0.005454, 0.359565, -45.816109, -16.228790
2020-05-11 13:25:01.944295, -0.060538, -1.021395, 0.053038, -0.003551, -0.017591, 0.002640, 0.259697, -45.670010, -16.266712
2020-05-11 13:25:01.997234, 0.135115, -1.029347, 0.044396, 0.003321, -0.020187, 0.001418, 0.039803, -45.510441, -16.038458
2020-05-11 13:25:02.050083, 0.000115, -1.028607, 0.041231, -0.002329, 0.010967, 0.008137, -0.281712, -45.394981, -16.256817
2020-05-11 13:25:02.102951, -0.009250, -1.024107, 0.042205, -0.008589, 0.013408, 0.001570, -0.359725, -45.381901, -16.248457
2020-05-11 13:25:02.156115, -0.000071, -1.026080, 0.060889, 0.002559, 0.004550, 0.000196, -0.377334, -45.426323, -16.596243
2020-05-11 13:25:02.208943, 0.002285, -1.022258, 0.048291, 0.003169, -0.001100, -0.000110, -0.352222, -45.309391, -16.621691
2020-05-11 13:25:02.261910, 0.002968, -1.024169, 0.049508, -0.005688, 0.000121, -0.000568, -0.494533, -45.411007, -16.633331
2020-05-11 13:25:02.314697, 0.004208, -1.024230, 0.050725, -0.004465, 0.000274, -0.003163, -0.479581, -45.449608, -16.907047
2020-05-11 13:25:02.367506, 0.121550, -1.025155, 0.051090, -0.011948, -0.000490, -0.005301, -0.501220, -45.474392, -16.972027
2020-05-11 13:25:02.420275, 0.049670, -1.037361, 0.039527, -0.001105, 0.004245, 0.001113, -0.591330, -45.414932, -16.965900
2020-05-11 13:25:02.473098, 0.063911, -1.035697, 0.040197, 0.003628, 0.029132, -0.004384, -0.361019, -45.275887, -16.911606
2020-05-11 13:25:02.525877, -0.048072, -1.009374, 0.017558, -0.001717, 0.012486, -0.001941, -0.406370, -45.457390, -17.077368
2020-05-11 13:25:02.578678, 0.009772, -1.030888, 0.085597, -0.006451, 0.028369, -0.001024, -0.173851, -45.584297, -17.276804
2020-05-11 13:25:02.631486, 0.040095, -1.002716, 0.146029, -0.000495, -0.004160, -0.001330, 0.084965, -45.606537, -17.421825
2020-05-11 13:25:02.684320, -0.068166, -1.013504, 0.043605, -0.002480, 0.024398, -0.003621, 0.594417, -45.740204, -17.508787
2020-05-11 13:25:02.737205, -0.003792, -1.010422, 0.083893, 0.000268, 0.011265, -0.003926, 0.845179, -45.816647, -17.372065
2020-05-11 13:25:02.790068, -0.009746, -1.033354, -0.019844, 0.000268, 0.001185, -0.003621, 1.320188, -45.322811, -17.396341
2020-05-11 13:25:02.842840, 0.059921, -1.001422, 0.123755, -0.009505, 0.011265, -0.001330, 1.582596, -44.830162, -17.386707
2020-05-11 13:25:02.895558, -0.017250, -1.016710, 0.053038, -0.005077, -0.012406, -0.003010, 1.747722, -44.228683, -17.294739
2020-05-11 13:25:02.948388, 0.025670, -1.004997, 0.045065, -0.002785, 0.009889, -0.001940, 1.913423, -43.765797, -16.907368
2020-05-11 13:25:03.001249, -0.005219, -1.014182, 0.044153, -0.002938, -0.022942, -0.001177, 1.911584, -43.657738, -16.902552
2020-05-11 13:25:03.053985, -0.067856, -1.035388, 0.016766, -0.004465, -0.020345, -0.001482, 2.122912, -43.461510, -17.009108
2020-05-11 13:25:03.106800, -0.044785, -0.996428, 0.010255, -0.002326, -0.003241, -0.002398, 2.129575, -43.249638, -16.768934
2020-05-11 13:25:03.159506, 0.027573, -1.041799, 0.015549, -0.002785, -0.002935, -0.004383, 2.218905, -42.958164, -16.829576
2020-05-11 13:25:03.212205, -0.001063, -1.002593, 0.040623, -0.004312, 0.014016, -0.001482, 2.458369, -42.810371, -16.846128
2020-05-11 13:25:03.265034, 0.018795, -1.016895, 0.052064, -0.000341, 0.010044, -0.001940, 2.761941, -42.594555, -16.952347
2020-05-11 13:25:03.318064, 0.038990, -1.028361, 0.066366, 0.000117, 0.006072, -0.007741, 3.167198, -42.574371, -16.729336
2020-05-11 13:25:03.371097, -0.075484, -1.018251, 0.030460, -0.007213, 0.006378, -0.001175, 3.553003, -42.527733, -16.783369
2020-05-11 13:25:03.424198, 0.170288, -1.037731, 0.045065, 0.015236, -0.022638, -0.010796, 3.850448, -42.441631, -16.536043
2020-05-11 13:25:03.477160, -0.018552, -1.021025, 0.067705, 0.003324, -0.006450, -0.005756, 4.222804, -42.189785, -16.454405
2020-05-11 13:25:03.530017, 0.051389, -1.021950, 0.029121, -0.003853, -0.001411, 0.002185, 4.811888, -41.634579, -16.211857
2020-05-11 13:25:03.582742, -0.016940, -1.030272, 0.063323, 0.004546, -0.008436, -0.004687, 5.456756, -40.854980, -16.131134
2020-05-11 13:25:03.635582, 0.000735, -1.038224, 0.049873, -0.005838, -0.009198, 0.002337, 5.922250, -40.054436, -16.278658
2020-05-11 13:25:03.688365, -0.052972, -1.042293, 0.032955, 0.012488, 0.000882, -0.010643, 6.574646, -39.267632, -16.184574
2020-05-11 13:25:03.741036, 0.016217, -1.015107, -0.004341, -0.007518, -0.004005, 0.002185, 6.950962, -38.375938, -16.242962
2020-05-11 13:25:03.794058, -0.060724, -1.020224, 0.043118, -0.003394, 0.015848, 0.003254, 7.285614, -37.229572, -16.530830
2020-05-11 13:25:03.846888, 0.000983, -1.008696, 0.067340, 0.014626, 0.020887, -0.017210, 7.463737, -36.220997, -17.019716
2020-05-11 13:25:03.900111, 0.036903, -1.034525, 0.003471, 0.003631, 0.003783, -0.006367, 7.617435, -35.389740, -17.332376
2020-05-11 13:25:03.952947, -0.057685, -1.019669, 0.082372, 0.011419, 0.003478, -0.008811, 7.617193, -34.291721, -17.483717
2020-05-11 13:25:04.005755, -0.020537, -1.041615, 0.069226, 0.006073, 0.002561, -0.009573, 7.516200, -33.364517, -17.671616
2020-05-11 13:25:04.058497, 0.074469, -1.014737, 0.081641, 0.000117, -0.004159, 0.000048, 7.149806, -32.756927, -17.952684
2020-05-11 13:25:04.111366, 0.047768, -1.030272, 0.052977, 0.011111, -0.004616, -0.009419, 6.783890, -32.069595, -18.070034
2020-05-11 13:25:04.164200, 0.032299, -1.020717, 0.099595, -0.006452, -0.014695, -0.001630, 6.323157, -31.605114, -18.227837
2020-05-11 13:25:04.216975, -0.002428, -0.999757, 0.098012, -0.003855, 0.016456, -0.001172, 5.937771, -31.129848, -18.313400
2020-05-11 13:25:04.269991, -0.061778, -1.040258, 0.026504, 0.016609, -0.010575, -0.011709, 5.651862, -30.761835, -18.317930
2020-05-11 13:25:04.323080, -0.018614, -1.025340, 0.040866, -0.007366, 0.004849, 0.000355, 5.081535, -30.595499, -18.338987
2020-05-11 13:25:04.375907, -0.063266, -1.007401, 0.045918, -0.001257, -0.003855, -0.003309, 4.804473, -30.486824, -18.309345
2020-05-11 13:25:04.428629, 0.021557, -1.010792, 0.055837, -0.001715, 0.004391, -0.003767, 4.241223, -30.454773, -18.111300
2020-05-11 13:25:04.481477, 0.034509, -1.039149, 0.049630, 0.003782, -0.011642, -0.006668, 3.796224, -30.282763, -17.979012
2020-05-11 13:25:04.534243, 0.027266, -1.006292, 0.046283, -0.010266, 0.001950, 0.005090, 3.557824, -30.309820, -18.204412
2020-05-11 13:25:04.587012, -0.004536, -1.029409, 0.041292, 0.037528, -0.000952, -0.032778, 3.092705, -30.447344, -18.242361
2020-05-11 13:25:04.639811, -0.009870, -1.036929, 0.038128, 0.001639, 0.002866, -0.003761, 2.944609, -30.276819, -18.200083
2020-05-11 13:25:04.692636, -0.013343, -1.029594, 0.040623, -0.019585, 0.001338, 0.010440, 2.887733, -30.213585, -18.584656
2020-05-11 13:25:04.745375, -0.008009, -1.021210, 0.045492, -0.023247, 0.005003, 0.017156, 2.674231, -30.364256, -18.485540
2020-05-11 13:25:04.798123, -0.028289, -1.014121, 0.048900, -0.012249, 0.003627, 0.015474, 2.581830, -30.307928, -18.342325
2020-05-11 13:25:04.850896, -0.031514, -1.025278, 0.041779, -0.004002, 0.002405, -0.000561, 2.474309, -30.323854, -18.576418
2020-05-11 13:25:04.903638, -0.000753, -1.032121, 0.043179, 0.000885, 0.006680, -0.005752, 2.427493, -30.452473, -18.865385
2020-05-11 13:25:04.956424, -0.089127, -1.022320, 0.037397, -0.009958, 0.016454, 0.004785, 2.440439, -30.323614, -18.550320
2020-05-11 13:25:05.009095, -0.030645, -1.023552, 0.046465, -0.000642, -0.000650, -0.001629, 2.450797, -30.226625, -18.536520
2020-05-11 13:25:05.062295, -0.082926, -1.026573, 0.055351, -0.003391, 0.003779, -0.000560, 2.660683, -30.063650, -18.409260
2020-05-11 13:25:05.115373, -0.109035, -1.032799, 0.036850, -0.010109, 0.017215, 0.001272, 2.845392, -29.902777, -18.330696
2020-05-11 13:25:05.168258, -0.091918, -1.043217, 0.044153, -0.001709, -0.028290, 0.006158, 3.250758, -29.755781, -18.160341
2020-05-11 13:25:05.221110, -0.055824, -1.013689, 0.017132, -0.009650, 0.002712, 0.005700, 3.832652, -29.552803, -18.012434
2020-05-11 13:25:05.273864, -0.034801, -1.025032, 0.090588, 0.000429, -0.013782, 0.003562, 4.432567, -29.414816, -17.644234
2020-05-11 13:25:05.326644, -0.070150, -1.014182, 0.028573, -0.006749, -0.007062, -0.000409, 4.996499, -29.530081, -17.712864
2020-05-11 13:25:05.379324, 0.062499, -1.021641, 0.023583, -0.000793, 0.027910, 0.001424, 5.593245, -29.701576, -17.895611
2020-05-11 13:25:05.432085, -0.036103, -1.015539, 0.035085, -0.017439, -0.011797, 0.015016, 6.272241, -29.997341, -17.635035
2020-05-11 13:25:05.484881, 0.074408, -1.032614, -0.042736, -0.009039, 0.022106, 0.007685, 6.798638, -30.581583, -17.365559
2020-05-11 13:25:05.537752, -0.088259, -1.025525, 0.086753, -0.010719, -0.014087, -0.003768, 7.169355, -31.207546, -17.327215
2020-05-11 13:25:05.590493, -0.093717, -1.022628, 0.058028, -0.007816, -0.001870, 0.005852, 7.477129, -32.165726, -17.238428
2020-05-11 13:25:05.643593, -0.030832, -1.018374, 0.104037, -0.005831, 0.002712, -0.002548, 7.835349, -33.011551, -16.760626
2020-05-11 13:25:05.696417, 0.038008, -1.014121, 0.027782, -0.014841, -0.001412, 0.011044, 7.774724, -34.060238, -16.683464
2020-05-11 13:25:05.749230, 0.060597, -1.015539, 0.000746, 0.001346, 0.005307, -0.004074, 7.838225, -35.185829, -16.781538
2020-05-11 13:25:05.801978, -0.013467, -1.024662, 0.076955, -0.003082, -0.017600, -0.004685, 7.569825, -36.092403, -16.307947
2020-05-11 13:25:05.855003, 0.065691, -1.021826, 0.049691, -0.016827, -0.004314, 0.015321, 7.159105, -37.092106, -15.923265
2020-05-11 13:25:05.907985, -0.001684, -1.021456, 0.064236, -0.005068, 0.003475, 0.002645, 6.752130, -38.056534, -15.891543
2020-05-11 13:25:05.960900, 0.025731, -1.030457, 0.042449, -0.002166, 0.013399, 0.000813, 6.303349, -38.876869, -15.869072
2020-05-11 13:25:06.013653, -0.002304, -1.015107, 0.100873, -0.009802, -0.013021, 0.004783, 5.737124, -39.728298, -16.028332
2020-05-11 13:25:06.066455, 0.082449, -1.011285, 0.025773, -0.004457, -0.008287, 0.001882, 5.160945, -40.177689, -15.958163
2020-05-11 13:25:06.119203, 0.002844, -1.029840, 0.038006, -0.012092, -0.010425, 0.000813, 4.588001, -40.525002, -16.009533
2020-05-11 13:25:06.172017, 0.039051, -1.032861, 0.037641, 0.010050, -0.016073, 0.005393, 4.191246, -41.022408, -16.216244
2020-05-11 13:25:06.224806, -0.001250, -1.015415, 0.054255, 0.009285, 0.000879, -0.000257, 3.745042, -41.426434, -16.314785
2020-05-11 13:25:06.277632, -0.022273, -1.018066, 0.062167, -0.002932, 0.026683, 0.005240, 3.455279, -41.597183, -16.396524
2020-05-11 13:25:06.330380, 0.068208, -1.025648, 0.033807, -0.005376, -0.001417, 0.003254, 3.055468, -41.855759, -16.723413
2020-05-11 13:25:06.383165, 0.015726, -1.021272, 0.058698, -0.009193, 0.001485, -0.003923, 3.077220, -41.983334, -16.923908
2020-05-11 13:25:06.435964, -0.125841, -0.991004, 0.100812, -0.008735, 0.049743, 0.003713, 2.915421, -41.963417, -16.878012
2020-05-11 13:25:06.488798, 0.077784, -1.024909, 0.082067, -0.004612, -0.008747, 0.001422, 2.791582, -42.112152, -16.573986
2020-05-11 13:25:06.541550, -0.035793, -1.013751, 0.039649, 0.000428, -0.014245, 0.000505, 2.838111, -42.401905, -16.630035
2020-05-11 13:25:06.594337, 0.017997, -1.014737, 0.057724, -0.006139, 0.009884, 0.003865, 2.880934, -42.969143, -16.645819
2020-05-11 13:25:06.647360, 0.027941, -1.014306, 0.075799, -0.003084, 0.004844, 0.002338, 2.954393, -43.276562, -16.675879
2020-05-11 13:25:06.700476, 0.008728, -1.017634, 0.049326, -0.009344, -0.008899, -0.001022, 2.805959, -43.754250, -17.045685
2020-05-11 13:25:06.753264, 0.008728, -1.018498, 0.057237, 0.007912, -0.006149, 0.006155, 2.592013, -44.154697, -17.263081
2020-05-11 13:25:06.806152, 0.026591, -1.027744, 0.053342, -0.004916, 0.008968, 0.003405, 2.504855, -44.261597, -17.544500
2020-05-11 13:25:06.858950, 0.055870, -1.044512, 0.049265, -0.000029, -0.014853, 0.000504, 2.379130, -44.432499, -17.470367
2020-05-11 13:25:06.911805, 0.001913, -1.009004, 0.024374, -0.006290, 0.008665, 0.001725, 2.306549, -44.776581, -17.428495
2020-05-11 13:25:06.964658, 0.052494, -1.027744, 0.017132, -0.002472, -0.007064, 0.003711, 2.041284, -45.057945, -17.665211
2020-05-11 13:25:07.017566, -0.060724, -1.026388, 0.042996, -0.000640, -0.016991, 0.004169, 1.666673, -45.228146, -17.837151
2020-05-11 13:25:07.070360, -0.051483, -1.019484, 0.065088, -0.001556, 0.017520, 0.000809, 1.366983, -45.358208, -17.875914
2020-05-11 13:25:07.123289, 0.013884, -1.034649, 0.047865, -0.000181, -0.010885, 0.000656, 0.948032, -45.596432, -17.781986
2020-05-11 13:25:07.176147, 0.022478, -1.018806, 0.073121, -0.006136, -0.022641, -0.000413, 0.624071, -45.750420, -17.587719
2020-05-11 13:25:07.229008, -0.007017, -1.021641, 0.040805, -0.009494, 0.011261, -0.001482, 0.342502, -45.788227, -17.679274
2020-05-11 13:25:07.281827, -0.054274, -1.020655, 0.036606, -0.003843, -0.009507, -0.000107, 0.117247, -45.909954, -17.711840
2020-05-11 13:25:07.334733, 0.069252, -1.028237, 0.060584, 0.004098, 0.011873, 0.003864, -0.018157, -45.745087, -17.682688
2020-05-11 13:25:07.388206, -0.009932, -1.030457, 0.081459, 0.006694, -0.015769, 0.009209, -0.272081, -45.735168, -17.371719
2020-05-11 13:25:07.441081, -0.010118, -1.021456, 0.043605, 0.001960, 0.012482, 0.000962, -0.273619, -45.696739, -16.960236
2020-05-11 13:25:07.493902, -0.016940, -1.019176, 0.044761, -0.009187, -0.011187, -0.001634, -0.291650, -45.611107, -17.200533
2020-05-11 13:25:07.546832, -0.070770, -1.019915, 0.062897, -0.001551, -0.000650, 0.002031, -0.412475, -45.560898, -17.163233
2020-05-11 13:25:07.599649, -0.004226, -1.028546, 0.049386, -0.003995, 0.005306, 0.002336, -0.464335, -45.465843, -17.377457
2020-05-11 13:25:07.652518, 0.004518, -1.023552, 0.049630, -0.003078, -0.000803, -0.000870, -0.511423, -45.310516, -17.397749
2020-05-11 13:25:07.705383, -0.000629, -1.022936, 0.052368, -0.000940, -0.000192, -0.000718, -0.605093, -45.125263, -17.216406
2020-05-11 13:25:07.758273, 0.001603, -1.022381, 0.048534, -0.003993, -0.000192, -0.000259, -0.523229, -45.086842, -17.295057
2020-05-11 13:25:07.811091, 0.006130, -1.023306, 0.054012, -0.007352, 0.000114, -0.001481, -0.586538, -45.013412, -17.253380
2020-05-11 13:25:07.863979, 0.008851, -1.021087, 0.063262, 0.034334, -0.001871, -0.000106, -0.665185, -44.954670, -17.371126
2020-05-11 13:25:07.916855, 0.017874, -1.029532, 0.046100, -0.001860, -0.003092, -0.005145, -0.722503, -44.962563, -17.378157
2020-05-11 13:25:07.969657, 0.141376, -1.030888, 0.049082, -0.006594, -0.002787, -0.001327, -0.695557, -45.017670, -17.468040
2020-05-11 13:25:08.022472, 0.067287, -1.016771, 0.057298, -0.129836, -0.011492, 0.001880, -0.819601, -45.202026, -17.322035
2020-05-11 13:25:08.075630, 0.087114, -1.021950, 0.077320, -0.075609, -0.014696, -0.002243, -0.756435, -45.367805, -17.132591
2020-05-11 13:25:08.128406, 0.106143, -1.015970, 0.068070, 0.132674, -0.006296, -0.003159, -0.655503, -45.543121, -16.998470
2020-05-11 13:25:08.181441, -0.101903, -1.068677, -0.070049, 0.003781, 0.000424, -0.001937, -0.227557, -45.823647, -17.071316
2020-05-11 13:25:08.234302, 0.055134, -1.027806, -0.002040, 0.002101, -0.003242, -0.002395, -0.019600, -45.919991, -17.077291
2020-05-11 13:25:08.287173, 0.019286, -1.039703, 0.037154, 0.000422, -0.000035, -0.007130, 0.197165, -46.015362, -16.849630
2020-05-11 13:25:08.340010, 0.039297, -1.023244, 0.026808, -0.002327, 0.011417, -0.001632, 0.644977, -45.829414, -17.080088
2020-05-11 13:25:08.392864, 0.025793, -1.033108, 0.028999, 0.011416, -0.003854, -0.004380, 1.008827, -45.570877, -17.090120
2020-05-11 13:25:08.445706, 0.095892, -1.001298, 0.090831, -0.006758, -0.001258, 0.001118, 1.344707, -44.967625, -16.949965
2020-05-11 13:25:08.498555, 0.065078, -0.989339, 0.066731, -0.005993, -0.032864, -0.001631, 1.607811, -44.332554, -16.852367
2020-05-11 13:25:08.551368, 0.014621, -1.045375, -0.009791, -0.007215, 0.032651, -0.000867, 1.711894, -43.915981, -16.367517
2020-05-11 13:25:08.604207, -0.004350, -1.026326, 0.013237, -0.009809, -0.028889, -0.001172, 1.811960, -43.436352, -16.403843
2020-05-11 13:25:08.656987, 0.059001, -1.011100, 0.117791, 0.000117, -0.022322, -0.004379, 1.729614, -43.156326, -16.264383
2020-05-11 13:25:08.709828, -0.050987, -1.052896, -0.019360, -0.002173, -0.006592, -0.000714, 1.898936, -43.066479, -16.283566
2020-05-11 13:25:08.762644, 0.024872, -1.021518, 0.084502, 0.004088, -0.019879, -0.004837, 2.006394, -42.915318, -15.868893
2020-05-11 13:25:08.815501, -0.090058, -1.019792, 0.059428, -0.007366, 0.010665, 0.000202, 2.221160, -42.928562, -15.984606
2020-05-11 13:25:08.868319, -0.002738, -1.028422, 0.097038, -0.004159, 0.001349, -0.004074, 2.527374, -42.719601, -15.635535
2020-05-11 13:25:08.921156, 0.027143, -1.018806, 0.053342, 0.003782, -0.007509, -0.004074, 2.945944, -42.631718, -15.931574
2020-05-11 13:25:08.973890, -0.005653, -1.023799, 0.069165, 0.009889, 0.000891, -0.005142, 3.202401, -42.482124, -15.874947
2020-05-11 13:25:09.026719, 0.023092, -1.025340, 0.044457, 0.004849, -0.028426, -0.006668, 3.642766, -42.338055, -15.617541
2020-05-11 13:25:09.079480, 0.039174, -1.030518, 0.026625, -0.002481, 0.007919, 0.001273, 4.101458, -41.832478, -15.341884
2020-05-11 13:25:09.132508, -0.043793, -1.019484, 0.028086, 0.000573, -0.002618, -0.006363, 4.636412, -41.531696, -14.993515
2020-05-11 13:25:09.185333, 0.002471, -1.032614, 0.042509, 0.008513, 0.005169, -0.004071, 5.131575, -40.943439, -15.031523
2020-05-11 13:25:09.238154, -0.046584, -1.034464, 0.052186, -0.001718, -0.006589, -0.002849, 5.611705, -40.277676, -15.102606
2020-05-11 13:25:09.290921, -0.022769, -1.033046, 0.044579, 0.009734, 0.006086, -0.006819, 6.197409, -39.196175, -15.020007
2020-05-11 13:25:09.343718, 0.044944, -1.008449, 0.070443, -0.002942, -0.004299, -0.000710, 6.660373, -38.099220, -15.250292
2020-05-11 13:25:09.396535, -0.059421, -1.016217, 0.101116, 0.006832, 0.014790, -0.009262, 6.918744, -36.916718, -15.533307
2020-05-11 13:25:09.449352, 0.033772, -1.034525, 0.030825, -0.000957, -0.015142, -0.005139, 7.265440, -35.989010, -15.771341
2020-05-11 13:25:09.502135, -0.019234, -1.021641, 0.033807, 0.002709, 0.002268, -0.006971, 7.514797, -34.862621, -15.868793
2020-05-11 13:25:09.554969, 0.012534, -1.022320, 0.044396, -0.000804, 0.006695, -0.004527, 7.658283, -34.010300, -16.338999
2020-05-11 13:25:09.607755, -0.008568, -1.021333, 0.033076, -0.000956, -0.010560, -0.007428, 7.526672, -33.133282, -16.540833
2020-05-11 13:25:09.660607, -0.062522, -0.995812, 0.071295, -0.007981, -0.008116, 0.008760, 7.337383, -32.315792, -16.722639
2020-05-11 13:25:09.713374, 0.050039, -1.033416, 0.056689, 0.018591, -0.004604, -0.017201, 6.788352, -31.552021, -16.699564
2020-05-11 13:25:09.766191, -0.003234, -1.032553, 0.036058, -0.008287, -0.000022, 0.004484, 6.612327, -31.038586, -17.029766
2020-05-11 13:25:09.818969, 0.032422, -1.022196, 0.066853, -0.007216, -0.012238, 0.000208, 6.185906, -30.658331, -16.997564
2020-05-11 13:25:09.871777, -0.094275, -1.035697, 0.042144, 0.008055, -0.018194, -0.013994, 5.620770, -30.372423, -17.000858
2020-05-11 13:25:09.924540, -0.097562, -1.023429, 0.043787, 0.002099, -0.005670, -0.002693, 5.174262, -30.094906, -17.093565
2020-05-11 13:25:09.977438, 0.027020, -1.028607, 0.040927, 0.007597, 0.004104, -0.005595, 4.699454, -30.007065, -17.031170
2020-05-11 13:25:10.030229, -0.043607, -1.012210, 0.043483, -0.006911, -0.003837, 0.000361, 4.353209, -29.955090, -17.178829
2020-05-11 13:25:10.083047, -0.059421, -1.014860, 0.052490, -0.015003, 0.002271, 0.003262, 3.857812, -29.907410, -17.140059
2020-05-11 13:25:10.135834, 0.012964, -1.031320, 0.045978, 0.005003, -0.008877, -0.011704, 3.506295, -29.857069, -16.769096
2020-05-11 13:25:10.188642, -0.012351, -1.015169, 0.046891, -0.009809, 0.005935, -0.002082, 3.292281, -29.871685, -16.765783
2020-05-11 13:25:10.241417, -0.010862, -1.030395, 0.048900, 0.036764, -0.000937, -0.026818, 3.076270, -29.834587, -16.487108
2020-05-11 13:25:10.294230, -0.005715, -1.019237, 0.040623, -0.013631, 0.001201, 0.006779, 2.931461, -29.859798, -16.676754
2020-05-11 13:25:10.347084, -0.010614, -1.035881, 0.042083, 0.004847, 0.000590, -0.005590, 2.597214, -29.971449, -16.610556
2020-05-11 13:25:10.399897, -0.004846, -1.013689, 0.045857, -0.021722, 0.001506, 0.012275, 2.593017, -30.182745, -16.810377
2020-05-11 13:25:10.452663, -0.007947, -1.027189, 0.043118, -0.004311, 0.001048, -0.000705, 2.320858, -30.266399, -16.888880
2020-05-11 13:25:10.505473, -0.006955, -1.022258, 0.045005, -0.010571, 0.001811, 0.003723, 2.383132, -30.229643, -17.015604
2020-05-11 13:25:10.558232, -0.008443, -1.023984, 0.047256, -0.008126, 0.003490, 0.001890, 2.287351, -30.163645, -17.032722
2020-05-11 13:25:10.611050, -0.009312, -1.025833, 0.046465, -0.013622, 0.005017, 0.004180, 2.473926, -30.171835, -17.235277
2020-05-11 13:25:10.663806, 0.000549, -1.030765, 0.043118, -0.007664, -0.001245, 0.001125, 2.320786, -30.153992, -17.106768
2020-05-11 13:25:10.716645, -0.027421, -1.025895, 0.045796, -0.011786, 0.004100, -0.001013, 2.427874, -30.279989, -17.111465
2020-05-11 13:25:10.769398, -0.083670, -1.016402, 0.057724, 0.000279, 0.019371, 0.001278, 2.423944, -30.277107, -17.417398
2020-05-11 13:25:10.822224, -0.096011, -0.999572, 0.045735, -0.000179, 0.007764, 0.004332, 2.432001, -30.408976, -17.168205
2020-05-11 13:25:10.875320, -0.041622, -1.038409, 0.026930, 0.016925, -0.010257, -0.006358, 2.516846, -30.276619, -17.035677
2020-05-11 13:25:10.928159, -0.064445, -1.011100, 0.116209, -0.009495, 0.020897, 0.003416, 2.870322, -30.115843, -17.185341
2020-05-11 13:25:10.980919, -0.006025, -1.036128, 0.055168, 0.000890, 0.018454, 0.003568, 3.231503, -29.926235, -17.066818
2020-05-11 13:25:11.033741, -0.097066, -1.031690, 0.069957, 0.004555, 0.001655, 0.001277, 3.962847, -29.725760, -17.134710
2020-05-11 13:25:11.086629, 0.056914, -1.035327, 0.073365, -0.010869, 0.026395, 0.004943, 4.486323, -29.705650, -17.055370
2020-05-11 13:25:11.139443, 0.033281, -1.053265, -0.011063, -0.019269, -0.001094, -0.003151, 5.123504, -29.756649, -17.145891
2020-05-11 13:25:11.192273, -0.028289, -1.026696, 0.061436, -0.011633, -0.003079, 0.003263, 5.616448, -29.925522, -17.142763
2020-05-11 13:25:11.245100, -0.114120, -0.994949, 0.013054, -0.027363, 0.031129, 0.015786, 6.251604, -30.542423, -17.070528
2020-05-11 13:25:11.297862, -0.046894, -1.041615, -0.007793, -0.000637, 0.012192, -0.010329, 6.653328, -31.078638, -16.730904
2020-05-11 13:25:11.350674, -0.029901, -1.029285, 0.037215, -0.004913, -0.009492, 0.001430, 7.047508, -32.147980, -16.459206
2020-05-11 13:25:11.403556, -0.027173, -1.029101, 0.033442, -0.009951, 0.010970, 0.001735, 7.071652, -33.216911, -16.346445
2020-05-11 13:25:11.456376, -0.067918, -1.032306, -0.005673, -0.015601, 0.014941, 0.004789, 7.169367, -34.529465, -16.317253
2020-05-11 13:25:11.509142, -0.054026, -1.006477, 0.102577, 0.000129, 0.017079, 0.003415, 7.079539, -35.683186, -15.994631
2020-05-11 13:25:11.561951, -0.008505, -1.024169, 0.052368, -0.009187, -0.004454, 0.004484, 6.610076, -36.929398, -15.846943
2020-05-11 13:25:11.615630, -0.011978, -1.025340, 0.019383, -0.002314, 0.012648, 0.004483, 6.189706, -37.859283, -15.868258
2020-05-11 13:25:11.668502, -0.071949, -1.021272, 0.119374, -0.001398, -0.025378, 0.002345, 5.517410, -38.639782, -15.766183
2020-05-11 13:25:11.721377, 0.013700, -1.030827, 0.044335, -0.003994, 0.016619, 0.004025, 4.766773, -39.453243, -15.568302
2020-05-11 13:25:11.774259, 0.185756, -1.005614, 0.048717, -0.002009, -0.007052, 0.006469, 4.143864, -40.110115, -15.476825
2020-05-11 13:25:11.827029, -0.033746, -1.036991, 0.010194, -0.001551, 0.013565, 0.000665, 3.494336, -40.477043, -15.115995
2020-05-11 13:25:11.879813, 0.005076, -1.019052, 0.080972, 0.008223, 0.005012, -0.000556, 3.176314, -40.721794, -15.181807
2020-05-11 13:25:11.932707, -0.047700, -1.034957, 0.058698, -0.014990, -0.005220, -0.001473, 2.871497, -41.021275, -15.141479
2020-05-11 13:25:11.985565, 0.122716, -1.050861, -0.042252, -0.006438, -0.002623, 0.001887, 2.767642, -41.388935, -15.623494
2020-05-11 13:25:12.038429, 0.042734, -1.024292, 0.048474, -0.000787, -0.032708, 0.005247, 2.561359, -41.762344, -15.645916
2020-05-11 13:25:12.091269, 0.004890, -1.011038, 0.008135, -0.012852, -0.003692, 0.002651, 2.525133, -42.426998, -16.268202
2020-05-11 13:25:12.144169, 0.031194, -1.011963, -0.020450, -0.000787, -0.006593, 0.002650, 2.339351, -43.098995, -16.437706
2020-05-11 13:25:12.197005, 0.052249, -1.045128, 0.042205, -0.010408, -0.011327, -0.000710, 2.196326, -43.740273, -16.611082
2020-05-11 13:25:12.249795, 0.040954, -1.025772, 0.021270, -0.046289, 0.012647, 0.001123, 1.913906, -44.393566, -16.694578
2020-05-11 13:25:12.302816, -0.005033, -1.023676, 0.079694, 0.064125, -0.015605, -0.000862, 1.587170, -44.818619, -16.639343
2020-05-11 13:25:12.355815, 0.078827, -1.054622, 0.031372, 0.006093, -0.020645, 0.005094, 1.241782, -45.128166, -16.519611
2020-05-11 13:25:12.415369, 0.032545, -1.014429, 0.028208, 0.000595, -0.015758, -0.001473, 0.847871, -45.345310, -16.662079
2020-05-11 13:25:12.468157, 0.042857, -1.028792, 0.025043, 0.000289, 0.013409, -0.001168, 0.515942, -45.372658, -16.508743
2020-05-11 13:25:12.520991, 0.148865, -1.023491, 0.061193, 0.015408, 0.010049, 0.000818, 0.071198, -45.559200, -16.438375
2020-05-11 13:25:12.573774, 0.041507, -1.023429, 0.045978, -0.008263, -0.022632, 0.001429, -0.015796, -45.507175, -16.161261
2020-05-11 13:25:12.626719, 0.003712, -1.019299, 0.052734, -0.060634, 0.002413, -0.003458, -0.130192, -45.398468, -16.125523
2020-05-11 13:25:12.679481, 0.003960, -1.021888, 0.046770, -0.003670, 0.001038, -0.001320, -0.372908, -45.518864, -16.123081
2020-05-11 13:25:12.732296, 0.003340, -1.023614, 0.051699, -0.010083, -0.000947, -0.000709, -0.499881, -45.560291, -16.164711
2020-05-11 13:25:12.785068, -0.002428, -1.024600, 0.052916, -0.001836, 0.001496, -0.000403, -0.702260, -45.465359, -15.953952
2020-05-11 13:25:12.837892, 0.003154, -1.024046, 0.054073, 0.003661, 0.000580, -0.000403, -0.696163, -45.456497, -16.200834
2020-05-11 13:25:12.890680, 0.001665, -1.024230, 0.050725, -0.004585, 0.001648, -0.000708, -0.820085, -45.431110, -16.206575
2020-05-11 13:25:12.943505, 0.003836, -1.022135, 0.053890, 0.002135, -0.000031, -0.003304, -0.857623, -45.258335, -16.304146
2020-05-11 13:25:12.996366, 0.003526, -1.022813, 0.054316, -0.001072, -0.004307, -0.004220, -0.949253, -45.187199, -16.326996
2020-05-11 13:25:13.049185, 0.001727, -1.022566, 0.056081, -0.001072, -0.009498, -0.002692, -0.972157, -45.124191, -16.295883
2020-05-11 13:25:13.101974, -0.004288, -1.024169, 0.038189, 0.009616, -0.021253, -0.002539, -0.956880, -45.055489, -16.424986
2020-05-11 13:25:13.154795, 0.013577, -1.064978, -0.025598, 0.165387, -0.022780, 0.000363, -1.011859, -45.067616, -16.467251
2020-05-11 13:25:13.207564, -0.041188, -1.025402, 0.044761, -0.007030, -0.011327, 0.000057, -1.011042, -45.083412, -16.190172
2020-05-11 13:25:13.260379, 0.033895, -1.022504, 0.052977, -0.005961, -0.024002, -0.000859, -1.071988, -45.053360, -16.369473
2020-05-11 13:25:13.313164, 0.070970, -1.012148, 0.071478, 0.006866, -0.013920, -0.002233, -1.003145, -45.132996, -16.318241
2020-05-11 13:25:13.366028, -0.012164, -1.027929, 0.033807, 0.003049, -0.004605, 0.000363, -0.852871, -45.263794, -16.376045
2020-05-11 13:25:13.418803, -0.017250, -1.032614, 0.009830, -0.001533, 0.001046, -0.001317, -0.693452, -45.441616, -16.538509
2020-05-11 13:25:13.471627, 0.132230, -1.008018, 0.092048, -0.006114, -0.041410, -0.006203, -0.313916, -45.461899, -16.494148
2020-05-11 13:25:13.524379, 0.009772, -1.004196, 0.074582, -0.001685, -0.022778, -0.002844, -0.055087, -45.606197, -16.542921
2020-05-11 13:25:13.577235, -0.050181, -1.028916, 0.000867, -0.006267, -0.019571, -0.003149, 0.426375, -45.892403, -16.625521
2020-05-11 13:25:13.630078, -0.001622, -1.022936, 0.039527, -0.002449, -0.036675, -0.002233, 0.934745, -45.657860, -16.709034
2020-05-11 13:25:13.682924, -0.009560, -1.008511, 0.036484, -0.000311, -0.037891, -0.004217, 1.341442, -45.305561, -16.764223
2020-05-11 13:25:13.735792, -0.057065, -1.077122, -0.025719, 0.007783, -0.024757, -0.005745, 1.610799, -44.657795, -16.424845
2020-05-11 13:25:13.788639, -0.058305, -1.024169, -0.007672, 0.011906, -0.031782, -0.005134, 1.971884, -44.188370, -16.446800
2020-05-11 13:25:13.841419, -0.000195, -1.002963, -0.019663, -0.003518, -0.021703, -0.000552, 1.958353, -43.678658, -16.098269
2020-05-11 13:25:13.894242, -0.052599, -1.040505, 0.084076, 0.014655, 0.004259, -0.008035, 2.025927, -43.246494, -15.932758
2020-05-11 13:25:13.947036, 0.041200, -1.001052, 0.041597, 0.000300, -0.014983, -0.002385, 2.169587, -43.083725, -15.762578
2020-05-11 13:25:13.999872, 0.085825, -1.023244, 0.058454, -0.003213, -0.005515, -0.006355, 2.312515, -42.923016, -15.765900
2020-05-11 13:25:14.052639, -0.038398, -1.021395, 0.042814, -0.006114, 0.001205, -0.004676, 2.639657, -42.660275, -15.265901
2020-05-11 13:25:14.105482, 0.058448, -1.011655, 0.096186, 0.004729, -0.003682, -0.008188, 3.175771, -42.486675, -15.275580
2020-05-11 13:25:14.158239, -0.075174, -0.990634, 0.118521, 0.006561, 0.012200, -0.006814, 3.733462, -42.012363, -15.201969
2020-05-11 13:25:14.211093, 0.042734, -1.014552, 0.077016, 0.002743, 0.013575, -0.005745, 4.414815, -41.376762, -15.143081
2020-05-11 13:25:14.263876, -0.031576, -1.012271, 0.044700, 0.007630, 0.014644, -0.007119, 5.066297, -40.721912, -15.284829
2020-05-11 13:25:14.316867, 0.048197, -1.049258, 0.021270, 0.009310, -0.009791, -0.006050, 5.845083, -39.893093, -15.450527
2020-05-11 13:25:14.369621, 0.059369, -1.028176, 0.081215, 0.011143, 0.009604, -0.009257, 6.372911, -38.882408, -15.463959
2020-05-11 13:25:14.422438, -0.074243, -1.020409, 0.041779, 0.010226, -0.022772, -0.005439, 6.811975, -37.793316, -15.756540
2020-05-11 13:25:14.475282, -0.057871, -1.013073, 0.033685, -0.006266, 0.014030, 0.002807, 7.230425, -36.818363, -16.019661
2020-05-11 13:25:14.528142, 0.042734, -1.027374, 0.038249, 0.017863, 0.017085, -0.015519, 7.525985, -35.867634, -16.334757
2020-05-11 13:25:14.580886, -0.006459, -1.033169, 0.076894, 0.003813, 0.003646, -0.008189, 7.644834, -34.911892, -16.705959
2020-05-11 13:25:14.633692, -0.046336, -1.021210, 0.027903, 0.016336, 0.001660, -0.015519, 7.487912, -33.897247, -16.613581
2020-05-11 13:25:14.686504, -0.046398, -1.011655, 0.037154, -0.005807, -0.009792, -0.000247, 7.183175, -32.896469, -16.658804
2020-05-11 13:25:14.739350, -0.093779, -1.015292, 0.027903, -0.003973, -0.015134, -0.002996, 6.793786, -32.101944, -16.863504
2020-05-11 13:25:14.792119, -0.104880, -1.044080, 0.021574, 0.002440, 0.005329, -0.009255, 6.695074, -31.258966, -17.178352
2020-05-11 13:25:14.845015, 0.010754, -1.031566, 0.040319, -0.008403, 0.006398, 0.000060, 6.364104, -30.828537, -17.255899
2020-05-11 13:25:14.897791, 0.045803, -1.020100, 0.034111, -0.004584, -0.002612, -0.003604, 5.903329, -30.246340, -17.239487
2020-05-11 13:25:14.950613, -0.164664, -1.018066, 0.023948, -0.007638, -0.005819, 0.004642, 5.501108, -30.250189, -17.293184
2020-05-11 13:25:15.003370, -0.018366, -1.028792, 0.042144, -0.001835, -0.006277, -0.003757, 4.994532, -30.289860, -17.356482
2020-05-11 13:25:15.056198, -0.068228, -1.015169, 0.039893, 0.011146, -0.003528, -0.007422, 4.695671, -30.260609, -17.314142
2020-05-11 13:25:15.108966, -0.041002, -1.025463, 0.052186, 0.008243, -0.005055, -0.008337, 4.294182, -30.273802, -17.213444
2020-05-11 13:25:15.161835, -0.107236, -1.003518, 0.040197, -0.008709, 0.001665, 0.003727, 3.978591, -30.418530, -17.286877
2020-05-11 13:25:15.214603, -0.028909, -1.015477, 0.042996, 0.008243, -0.013607, -0.003756, 3.686918, -30.570904, -17.095749
2020-05-11 13:25:15.267487, -0.010490, -1.044820, 0.048717, 0.024732, 0.001207, -0.027422, 3.526379, -30.680605, -17.314754
2020-05-11 13:25:15.320262, -0.008257, -1.026635, 0.039345, 0.008390, -0.001237, -0.009095, 3.134749, -30.762268, -17.455091
2020-05-11 13:25:15.373091, -0.012475, -1.019545, 0.035998, -0.008560, 0.002123, 0.002206, 3.151844, -30.882486, -17.657433
2020-05-11 13:25:15.425911, -0.007141, -1.018929, 0.041231, -0.010086, 0.002428, 0.002816, 2.829521, -30.935970, -17.662407
2020-05-11 13:25:15.478734, -0.009312, -1.035450, 0.037154, -0.010542, 0.002275, 0.004496, 2.661262, -31.070238, -17.634426
2020-05-11 13:25:15.531556, -0.003048, -1.022998, 0.040745, -0.014357, 0.002122, -0.000697, 2.420255, -31.141060, -17.542309
2020-05-11 13:25:15.584387, -0.010490, -1.034833, 0.038006, -0.013592, 0.001052, 0.004037, 2.367449, -31.148928, -17.259417
2020-05-11 13:25:15.637266, -0.005529, -1.011038, 0.046100, -0.024736, 0.001816, 0.017015, 2.347605, -31.185717, -17.314939
2020-05-11 13:25:15.690100, -0.037095, -1.031628, 0.040745, -0.004729, -0.003071, 0.000063, 2.342929, -31.123665, -17.370979
2020-05-11 13:25:15.742947, -0.024320, -1.022504, 0.057176, -0.004881, 0.014184, 0.000979, 2.288788, -30.982542, -17.131069
2020-05-11 13:25:15.795823, -0.015513, -1.022196, 0.058393, -0.004728, 0.002119, 0.005255, 2.307076, -30.704977, -17.305239
2020-05-11 13:25:15.848676, -0.058305, -1.035512, 0.036484, 0.003824, -0.041246, 0.000368, 2.439306, -30.446333, -17.241186
2020-05-11 13:25:15.901492, 0.102091, -1.029779, -0.034500, -0.002590, -0.017727, -0.001312, 2.757890, -30.288208, -17.451443
2020-05-11 13:25:15.954366, -0.091980, -1.021518, 0.021757, -0.011142, 0.006860, 0.000368, 3.063158, -30.009237, -17.395922
2020-05-11 13:25:16.007225, -0.012909, -1.038717, 0.020357, -0.000758, -0.002914, 0.002964, 3.637771, -29.834852, -17.517120
2020-05-11 13:25:16.060217, -0.154679, -1.003394, 0.120591, -0.006103, 0.013732, 0.003880, 4.142262, -29.835615, -17.384542
2020-05-11 13:25:16.113128, 0.117191, -1.017881, 0.024009, -0.000605, 0.020910, -0.002687, 4.758655, -30.025288, -17.333685
2020-05-11 13:25:16.166022, -0.011482, -1.024415, -0.011729, -0.000452, 0.024422, -0.005588, 5.386169, -30.262409, -17.275566
2020-05-11 13:25:16.218851, -0.025994, -1.027621, 0.014880, -0.009155, 0.018005, 0.005101, 6.196181, -30.830231, -17.240692
2020-05-11 13:25:16.271733, 0.015480, -1.028299, 0.024252, -0.008543, -0.003985, -0.000855, 6.653790, -31.455254, -17.058800
2020-05-11 13:25:16.324560, -0.010428, -1.031012, 0.023704, -0.000449, 0.012048, 0.001588, 6.991878, -32.412682, -16.837744
2020-05-11 13:25:16.377451, 0.019716, -1.045930, 0.058941, -0.006404, -0.010858, -0.001466, 7.071947, -33.306698, -16.829418
2020-05-11 13:25:16.430307, 0.088403, -1.031566, 0.076894, -0.005030, 0.028849, 0.000062, 7.152803, -34.320751, -16.323008
2020-05-11 13:25:16.483078, -0.031266, -1.008388, 0.106532, -0.005030, 0.018769, -0.000244, 7.021488, -35.595501, -15.734831
