Time,Acc X,Acc Y,Acc Z,Ang Acc X,Ang Acc Y,Ang Acc Z,Disp X,Disp Y,Disp Z,Rot X,Rot Y,Rot z,Vel X,Vel Y,Vel Z,Ang Vel X,Ang Vel Y,Ang Vel Z
0,0,0,0,0,0,0,0,0,0,0,0,0,0,0,0,0,0,0
0.001,6.00E-07,0,0,-0.00013529,0,0,1.00E-13,0,0,5.48E-05,0,0,3.00E-10,0,0,0.0548311,0,0
0.002,1.20E-06,0,0,-0.00027058,0,0,8.00E-13,0,0,0.000109662,0,0,1.20E-09,0,0,0.0548309,0,0
0.003,1.80E-06,0,0,-0.00040587,0,0,2.70E-12,0,0,0.000164493,0,0,2.70E-09,0,0,0.0548305,0,0
0.00425,2.55E-06,0,0,-0.00057498,0,0,7.68E-12,0,0,0.000233031,0,0,5.42E-09,0,0,0.0548299,0,0
0.0058125,3.49E-06,0,0,-0.000786365,0,0,1.96E-11,0,0,0.000318702,0,0,1.01E-08,0,0,0.0548288,0,0
0.00776563,4.66E-06,0,0,-0.00105059,0,0,4.68E-11,0,0,0.000425787,0,0,1.81E-08,0,0,0.0548271,0,0
0.010207,6.12E-06,0,0,-0.00138085,0,0,1.06E-10,0,0,0.000559639,0,0,3.12E-08,0,0,0.0548241,0,0
0.0132588,7.95E-06,0,0,-0.00179366,0,0,2.33E-10,0,0,0.000726942,0,0,5.27E-08,0,0,0.0548192,0,0
0.0170735,1.02E-05,0,0,-0.0023096,0,0,4.98E-10,0,0,0.000936046,0,0,8.74E-08,0,0,0.0548114,0,0
0.0218419,1.31E-05,0,0,-0.00295441,0,0,1.04E-09,0,0,0.00119738,0,0,1.43E-07,0,0,0.0547989,0,0
0.0278023,1.67E-05,0,0,-0.00376019,0,0,2.15E-09,0,0,0.00152395,0,0,2.32E-07,0,0,0.0547789,0,0
0.0352529,2.11E-05,0,0,-0.00476694,0,0,4.38E-09,0,0,0.00193197,0,0,3.73E-07,0,0,0.0547471,0,0
0.0445661,2.67E-05,0,0,-0.00602445,0,0,8.85E-09,0,0,0.00244162,0,0,5.95E-07,0,0,0.0546968,0,0
0.0562077,3.37E-05,0,0,-0.00759448,0,0,1.77E-08,0,0,0.00307793,0,0,9.47E-07,0,0,0.0546176,0,0
0.0707596,4.24E-05,0,0,-0.00955339,0,0,3.54E-08,0,0,0.00387184,0,0,1.50E-06,0,0,0.0544928,0,0
0.0889495,5.32E-05,0,0,-0.0119949,0,0,7.03E-08,0,0,0.00486135,0,0,2.37E-06,0,0,0.0542968,0,0
0.111687,6.68E-05,0,0,-0.0150328,0,0,1.39E-07,0,0,0.00609255,0,0,3.73E-06,0,0,0.0539895,0,0
0.140109,8.37E-05,0,0,-0.0188027,0,0,2.74E-07,0,0,0.00762044,0,0,5.87E-06,0,0,0.0535086,0,0
0.175636,1.05E-04,0,0,-0.0234615,0,0,5.40E-07,0,0,0.0095086,0,0,9.22E-06,0,0,0.0527576,0,0
0.220045,0.000131156,0,0,-0.0291807,0,0,1.06E-06,0,0,0.0118265,0,0,1.45E-05,0,0,0.0515883,0,0
0.275556,0.000163969,0,0,-0.0361268,0,0,2.08E-06,0,0,0.0146417,0,0,2.27E-05,0,0,0.0497745,0,0
0.344945,0.00020483,0,0,-0.0444175,0,0,4.08E-06,0,0,0.0180017,0,0,3.55E-05,0,0,0.0469773,0,0
0.431681,0.000255664,0,0,-0.0540285,0,0,7.99E-06,0,0,0.0218969,0,0,5.54E-05,0,0,0.0427012,0,0
0.531681,0.000313938,0,0,-0.0638562,0,0,1.49E-05,0,0,0.0258799,0,0,8.39E-05,0,0,0.0367948,0,0
0.631681,0.000371856,0,0,-0.0721115,0,0,2.50E-05,0,0,0.0292257,0,0,0.000118199,0,0,0.0299824,0,0
0.731681,0.000429419,0,0,-0.0785911,0,0,3.87E-05,0,0,0.0318518,0,0,0.000158265,0,0,0.0224318,0,0
0.831681,0.000486627,0,0,-0.0831356,0,0,5.68E-05,0,0,0.0336936,0,0,0.000204071,0,0,0.0143288,0,0
0.931681,0.000543481,0,0,-0.0856331,0,0,7.97E-05,0,0,0.0347058,0,0,0.000255579,0,0,0.00587294,0,0
1.03168,0.000599982,0,0,-0.0860219,0,0,0.000108116,0,0,0.0348634,0,0,0.000312755,0,0,-0.0027275,0,0
1.13168,0.00065613,0,0,-0.0842926,0,0,0.000142485,0,0,0.0341625,0,0,0.000375564,0,0,-0.0112608,0,0
1.23168,0.000711926,0,0,-0.0804878,0,0,0.000183416,0,0,0.0326205,0,0,0.000443969,0,0,-0.0195168,0,0
1.33168,0.000767371,0,0,-0.074701,0,0,0.000231465,0,0,0.0302752,0,0,0.000517937,0,0,-0.0272922,0,0
1.43168,0.000822466,0,0,-0.0670749,0,0,0.000287187,0,0,0.0271844,0,0,0.000597432,0,0,-0.0343956,0,0
1.53168,0.000877211,0,0,-0.0577972,0,0,0.000351134,0,0,0.0234243,0,0,0.000682419,0,0,-0.0406521,0,0
1.63168,0.000931607,0,0,-0.0470963,0,0,0.000423853,0,0,0.0190874,0,0,0.000772862,0,0,-0.0459076,0,0
1.73168,0.000985655,0,0,-0.0352358,0,0,0.000505887,0,0,0.0142805,0,0,0.000868728,0,0,-0.0500327,0,0
1.83168,0.00103935,0,0,-0.0225076,0,0,0.000597778,0,0,0.00912198,0,0,0.000969982,0,0,-0.0529258,0,0
1.93168,0.00109271,0,0,-0.00922519,0,0,0.000700062,0,0,0.00373883,0,0,0.00107659,0,0,-0.0545157,0,0
2.03168,0.00114572,0,0,0.00428435,0,0,0.000813273,0,0,-0.00173638,0,0,0.00118851,0,0,-0.0547633,0,0
2.13168,0.00119838,0,0,0.0176884,0,0,0.000937941,0,0,-0.00716884,0,0,0.00130572,0,0,-0.0536624,0,0
2.23168,0.0012507,0,0,0.0306569,0,0,0.00107459,0,0,-0.0124248,0,0,0.00142818,0,0,-0.0512401,0,0
2.33168,0.00130267,0,0,0.0428705,0,0,0.00122375,0,0,-0.0173748,0,0,0.00155585,0,0,-0.0475562,0,0
2.43168,0.0013543,0,0,0.0540285,0,0,0.00138593,0,0,-0.0218969,0,0,0.0016887,0,0,-0.0427012,0,0
2.53168,0.00140559,0,0,0.0638562,0,0,0.00156166,0,0,-0.0258799,0,0,0.0018267,0,0,-0.0367948,0,0
2.63168,0.00145653,0,0,0.0721115,0,0,0.00175144,0,0,-0.0292257,0,0,0.0019698,0,0,-0.0299824,0,0
2.73168,0.00150714,0,0,0.0785911,0,0,0.00195579,0,0,-0.0318518,0,0,0.00211799,0,0,-0.0224318,0,0
2.83168,0.0015574,0,0,0.0831356,0,0,0.00217521,0,0,-0.0336936,0,0,0.00227122,0,0,-0.0143288,0,0
2.93168,0.00160733,0,0,0.0856331,0,0,0.0024102,0,0,-0.0347058,0,0,0.00242946,0,0,-0.00587294,0,0
3.03168,0.00165691,0,0,0.0860219,0,0,0.00266127,0,0,-0.0348634,0,0,0.00259267,0,0,0.0027275,0,0
3.13168,0.00170616,0,0,0.0842926,0,0,0.0029289,0,0,-0.0341625,0,0,0.00276083,0,0,0.0112608,0,0
3.23168,0.00175507,0,0,0.0804878,0,0,0.0032136,0,0,-0.0326205,0,0,0.0029339,0,0,0.0195168,0,0
3.33168,0.00180364,0,0,0.074701,0,0,0.00351584,0,0,-0.0302752,0,0,0.00311183,0,0,0.0272922,0,0
3.43168,0.00185188,0,0,0.0670749,0,0,0.00383613,0,0,-0.0271844,0,0,0.00329461,0,0,0.0343956,0,0
3.53168,0.00189978,0,0,0.0577972,0,0,0.00417493,0,0,-0.0234243,0,0,0.0034822,0,0,0.0406521,0,0
3.63168,0.00194735,0,0,0.0470963,0,0,0.00453272,0,0,-0.0190874,0,0,0.00367456,0,0,0.0459076,0,0
3.73168,0.00199459,0,0,0.0352358,0,0,0.00491,0,0,-0.0142805,0,0,0.00387166,0,0,0.0500327,0,0
3.83168,0.00204149,0,0,0.0225076,0,0,0.00530721,0,0,-0.00912198,0,0,0.00407346,0,0,0.0529258,0,0
3.93168,0.00208806,0,0,0.00922519,0,0,0.00572484,0,0,-0.00373883,0,0,0.00427994,0,0,0.0545157,0,0
4.03168,0.00213429,0,0,-0.00428435,0,0,0.00616336,0,0,0.00173638,0,0,0.00449106,0,0,0.0547633,0,0
4.13168,0.0021802,0,0,-0.0176884,0,0,0.00662321,0,0,0.00716884,0,0,0.00470679,0,0,0.0536624,0,0
4.23168,0.00222577,0,0,-0.0306569,0,0,0.00710487,0,0,0.0124248,0,0,0.00492709,0,0,0.0512401,0,0
4.33168,0.00227102,0,0,-0.0428705,0,0,0.00760878,0,0,0.0173748,0,0,0.00515194,0,0,0.0475562,0,0
4.43168,0.00231594,0,0,-0.0540285,0,0,0.0081354,0,0,0.0218969,0,0,0.00538129,0,0,0.0427012,0,0
4.53168,0.00236053,0,0,-0.0638562,0,0,0.00868519,0,0,0.0258799,0,0,0.00561511,0,0,0.0367948,0,0
4.63168,0.00240479,0,0,-0.0721115,0,0,0.00925857,0,0,0.0292257,0,0,0.00585338,0,0,0.0299824,0,0
4.73168,0.00244872,0,0,-0.0785911,0,0,0.00985601,0,0,0.0318518,0,0,0.00609606,0,0,0.0224318,0,0
4.83168,0.00249233,0,0,-0.0831356,0,0,0.0104779,0,0,0.0336936,0,0,0.00634311,0,0,0.0143288,0,0
4.93168,0.00253562,0,0,-0.0856331,0,0,0.0111248,0,0,0.0347058,0,0,0.00659451,0,0,0.00587294,0,0
5.03168,0.00257857,0,0,-0.0860219,0,0,0.011797,0,0,0.0348634,0,0,0.00685023,0,0,-0.0027275,0,0
5.13168,0.00262121,0,0,-0.0842926,0,0,0.012495,0,0,0.0341625,0,0,0.00711022,0,0,-0.0112608,0,0
5.23168,0.00266352,0,0,-0.0804878,0,0,0.0132192,0,0,0.0326205,0,0,0.00737446,0,0,-0.0195168,0,0
5.33168,0.00270551,0,0,-0.074701,0,0,0.01397,0,0,0.0302752,0,0,0.00764291,0,0,-0.0272922,0,0
5.43168,0.00274718,0,0,-0.0670749,0,0,0.0147479,0,0,0.0271844,0,0,0.00791555,0,0,-0.0343956,0,0
5.53168,0.00278853,0,0,-0.0577972,0,0,0.0155532,0,0,0.0234243,0,0,0.00819234,0,0,-0.0406521,0,0
5.63168,0.00282956,0,0,-0.0470963,0,0,0.0163865,0,0,0.0190874,0,0,0.00847325,0,0,-0.0459076,0,0
5.73168,0.00287027,0,0,-0.0352358,0,0,0.017248,0,0,0.0142805,0,0,0.00875824,0,0,-0.0500327,0,0
5.83168,0.00291065,0,0,-0.0225076,0,0,0.0181383,0,0,0.00912198,0,0,0.00904729,0,0,-0.0529258,0,0
5.93168,0.00295073,0,0,-0.00922519,0,0,0.0190576,0,0,0.00373883,0,0,0.00934036,0,0,-0.0545157,0,0
6.03168,2.99E-03,0,0,0.00428435,0,0,0.0200065,0,0,-0.00173638,0,0,0.00963742,0,0,-0.0547633,0,0
6.13168,0.00302992,0,0,0.0176884,0,0,0.0209852,0,0,-0.00716884,0,0,0.00993844,0,0,-0.0536624,0,0
6.23168,0.00306904,0,0,0.0306569,0,0,0.0219943,0,0,-0.0124248,0,0,0.0102434,0,0,-0.0512401,0,0
6.33168,0.00310785,0,0,0.0428705,0,0,0.023034,0,0,-0.0173748,0,0,0.0105522,0,0,-0.0475562,0,0
6.43168,0.00314634,0,0,0.0540285,0,0,0.0241049,0,0,-0.0218969,0,0,0.010865,0,0,-0.0427012,0,0
6.53168,0.00318452,0,0,0.0638562,0,0,0.0252072,0,0,-0.0258799,0,0,0.0111815,0,0,-0.0367948,0,0
6.63168,0.00322238,0,0,0.0721115,0,0,0.0263413,0,0,-0.0292257,0,0,0.0115018,0,0,-0.0299824,0,0
6.73168,0.00325993,0,0,0.0785911,0,0,0.0275077,0,0,-0.0318518,0,0,0.011826,0,0,-0.0224318,0,0
6.83168,0.00329718,0,0,0.0831356,0,0,0.0287066,0,0,-0.0336936,0,0,0.0121538,0,0,-0.0143288,0,0
6.93168,0.00333411,0,0,0.0856331,0,0,0.0299386,0,0,-0.0347058,0,0,0.0124854,0,0,-0.00587294,0,0
7.03168,0.00337073,0,0,0.0860219,0,0,0.0312038,0,0,-0.0348634,0,0,0.0128206,0,0,0.0027275,0,0
7.13168,0.00340704,0,0,0.0842926,0,0,0.0325028,0,0,-0.0341625,0,0,0.0131595,0,0,0.0112608,0,0
7.23168,0.00344304,0,0,0.0804878,0,0,0.0338358,0,0,-0.0326205,0,0,0.013502,0,0,0.0195168,0,0
7.33168,0.00347874,0,0,0.074701,0,0,0.0352033,0,0,-0.0302752,0,0,0.0138481,0,0,0.0272922,0,0
7.43168,0.00351412,0,0,0.0670749,0,0,0.0366056,0,0,-0.0271844,0,0,0.0141978,0,0,0.0343956,0,0
7.53168,0.00354921,0,0,0.0577972,0,0,0.038043,0,0,-0.0234243,0,0,0.0145509,0,0,0.0406521,0,0
7.63168,0.00358398,0,0,0.0470963,0,0,0.0395159,0,0,-0.0190874,0,0,0.0149076,0,0,0.0459076,0,0
7.73168,0.00361845,0,0,0.0352358,0,0,0.0410246,0,0,-0.0142805,0,0,0.0152677,0,0,0.0500327,0,0
7.83168,0.00365262,0,0,0.0225076,0,0,0.0425696,0,0,-0.00912198,0,0,0.0156313,0,0,0.0529258,0,0
7.93168,0.00368648,0,0,0.00922519,0,0,0.044151,0,0,-0.00373883,0,0,0.0159982,0,0,0.0545157,0,0
8.03168,0.00372004,0,0,-0.00428435,0,0,0.0457693,0,0,0.00173638,0,0,0.0163686,0,0,0.0547633,0,0
8.13168,0.0037533,0,0,-0.0176884,0,0,0.0474248,0,0,0.00716884,0,0,0.0167422,0,0,0.0536624,0,0
8.23168,0.00378625,0,0,-0.0306569,0,0,0.0491179,0,0,0.0124248,0,0,0.0171192,0,0,0.0512401,0,0
8.33168,0.00381891,0,0,-0.0428705,0,0,0.0508488,0,0,0.0173748,0,0,0.0174995,0,0,0.0475562,0,0
8.43168,0.00385126,0,0,-0.0540285,0,0,0.0526179,0,0,0.0218969,0,0,0.017883,0,0,0.0427012,0,0
8.53168,0.00388332,0,0,-0.0638562,0,0,0.0544255,0,0,0.0258799,0,0,0.0182697,0,0,0.0367948,0,0
8.63168,0.00391508,0,0,-0.0721115,0,0,0.0562719,0,0,0.0292257,0,0,0.0186596,0,0,0.0299824,0,0
8.73168,0.00394653,0,0,-0.0785911,0,0,0.0581575,0,0,0.0318518,0,0,0.0190527,0,0,0.0224318,0,0
8.83168,0.0039777,0,0,-0.0831356,0,0,0.0600826,0,0,0.0336936,0,0,0.0194489,0,0,0.0143288,0,0
8.93168,0.00400856,0,0,-0.0856331,0,0,0.0620474,0,0,0.0347058,0,0,0.0198483,0,0,0.00587294,0,0
9.03168,0.00403913,0,0,-0.0860219,0,0,0.0640523,0,0,0.0348634,0,0,0.0202506,0,0,-0.0027275,0,0
9.13168,0.00406941,0,0,-0.0842926,0,0,0.0660976,0,0,0.0341625,0,0,0.0206561,0,0,-0.0112608,0,0
9.23168,0.00409939,0,0,-0.0804878,0,0,0.0681836,0,0,0.0326205,0,0,0.0210645,0,0,-0.0195168,0,0
9.33168,0.00412908,0,0,-0.074701,0,0,0.0703106,0,0,0.0302752,0,0,0.0214759,0,0,-0.0272922,0,0
9.43168,0.00415847,0,0,-0.0670749,0,0,0.0724789,0,0,0.0271844,0,0,0.0218903,0,0,-0.0343956,0,0
9.53168,0.00418757,0,0,-0.0577972,0,0,0.0746888,0,0,0.0234243,0,0,0.0223076,0,0,-0.0406521,0,0
9.63168,0.00421638,0,0,-0.0470963,0,0,0.0769406,0,0,0.0190874,0,0,0.0227278,0,0,-0.0459076,0,0
9.73168,0.0042449,0,0,-0.0352358,0,0,0.0792345,0,0,0.0142805,0,0,0.0231509,0,0,-0.0500327,0,0
9.83168,0.00427314,0,0,-0.0225076,0,0,0.0815708,0,0,0.00912198,0,0,0.0235768,0,0,-0.0529258,0,0
9.93168,0.00430108,0,0,-0.00922519,0,0,0.0839499,0,0,0.00373883,0,0,0.0240055,0,0,-0.0545157,0,0
10.0317,0.00432873,0,0,0.00428435,0,0,0.086372,0,0,-0.00173638,0,0,0.024437,0,0,-0.0547633,0,0
10.1317,0.00435609,0,0,0.0176884,0,0,0.0888374,0,0,-0.00716884,0,0,0.0248712,0,0,-0.0536624,0,0
10.2317,0.00438317,0,0,0.0306569,0,0,0.0913464,0,0,-0.0124248,0,0,0.0253082,0,0,-0.0512401,0,0
10.3317,0.00440996,0,0,0.0428705,0,0,0.0938991,0,0,-0.0173748,0,0,0.0257479,0,0,-0.0475562,0,0
10.4317,0.00443647,0,0,0.0540285,0,0,0.096496,0,0,-0.0218969,0,0,0.0261902,0,0,-0.0427012,0,0
10.5317,0.00446269,0,0,0.0638562,0,0,0.0991373,0,0,-0.0258799,0,0,0.0266352,0,0,-0.0367948,0,0
10.6317,0.00448863,0,0,0.0721115,0,0,0.101823,0,0,-0.0292257,0,0,0.0270827,0,0,-0.0299824,0,0
10.7317,0.00451428,0,0,0.0785911,0,0,0.104554,0,0,-0.0318518,0,0,0.0275329,0,0,-0.0224318,0,0
10.8317,0.00453965,0,0,0.0831356,0,0,0.10733,0,0,-0.0336936,0,0,0.0279856,0,0,-0.0143288,0,0
10.9317,0.00456474,0,0,0.0856331,0,0,0.110151,0,0,-0.0347058,0,0,0.0284408,0,0,-0.00587294,0,0
11.0317,0.00458955,0.00E+00,0.00E+00,0.0860219,0,0,0.113018,0.00E+00,0,-0.0348634,0,0,0.0288985,0.00E+00,0,0.0027275,0,0
11.1317,4.61E-03,0,0,0.0842926,0,0,0.115931,0,0,-0.0341625,0,0,0.0293587,0,0,0.0112608,0,0
11.2317,4.64E-03,0,0,0.0804878,0,0,0.11889,0,0,-0.0326205,0,0,0.0298213,0,0,0.0195168,0,0
11.3317,4.66E-03,0,0,0.074701,0,0,0.121895,0,0,-0.0302752,0,0,0.0302863,0,0,0.0272922,0,0
11.4317,4.69E-03,0,0,0.0670749,0,0,0.124947,0,0,-0.0271844,0,0,0.0307538,0,0,0.0343956,0,0
11.5317,4.71E-03,0,0,0.0577972,0,0,0.128046,0,0,-0.0234243,0,0,0.0312235,0,0,0.0406521,0,0
11.6317,4.73E-03,0,0,0.0470963,0,0,0.131192,0,0,-0.0190874,0,0,0.0316956,0,0,0.0459076,0,0
11.7317,4.76E-03,0,0,0.0352358,0,0,0.134385,0,0,-0.0142805,0,0,0.03217,0,0,0.0500327,0,0
11.8317,4.78E-03,0,0,0.0225076,0,0,0.137626,0,0,-0.00912198,0,0,0.0326467,0,0,0.0529258,0,0
11.9317,4.80E-03,0,0,0.00922519,0,0,0.140915,0,0,-0.00373883,0,0,0.0331256,0,0,0.0545157,0,0
12.0317,4.82E-03,0,0,-0.00428435,0,0,0.144251,0,0,0.00173638,0,0,0.0336067,0,0,0.0547633,0,0
12.1317,4.84E-03,0,0,-0.0176884,0,0,0.147636,0,0,0.00716884,0,0,0.0340901,0,0,0.0536624,0,0
12.2317,4.87E-03,0,0,-0.0306569,0,0,0.151069,0,0,0.0124248,0,0,0.0345756,0,0,0.0512401,0,0
12.3317,4.89E-03,0,0,-0.0428705,0,0,0.154551,0,0,0.0173748,0,0,0.0350632,0,0,0.0475562,0,0
12.4317,4.91E-03,0,0,-0.0540285,0,0,0.158082,0,0,0.0218969,0,0,0.0355529,0,0,0.0427012,0,0
12.5317,4.93E-03,0,0,-0.0638562,0,0,0.161662,0,0,0.0258799,0,0,0.0360447,0,0,0.0367948,0,0
12.6317,4.95E-03,0,0,-0.0721115,0,0,0.165291,0,0,0.0292257,0,0,0.0365386,0,0,0.0299824,0,0
12.7317,4.97E-03,0,0,-0.0785911,0,0,0.16897,0,0,0.0318518,0,0,0.0370345,0,0,0.0224318,0,0
12.8317,4.99E-03,0,0,-0.0831356,0,0,0.172698,0,0,0.0336936,0,0,0.0375323,0,0,0.0143288,0,0
12.9317,5.01E-03,0,0,-0.0856331,0,0,0.176476,0,0,0.0347058,0,0,0.0380322,0,0,0.00587294,0,0
13.0317,5.03E-03,0,0,-0.0860219,0,0,0.180305,0,0,0.0348634,0,0,0.038534,0,0,-0.0027275,0,0
13.1317,5.05E-03,0,0,-0.0842926,0,0,0.184183,0,0,0.0341625,0,0,0.0390377,0,0,-0.0112608,0,0
13.2317,5.07E-03,0,0,-0.0804878,0,0,0.188112,0,0,0.0326205,0,0,0.0395434,0,0,-0.0195168,0,0
13.3317,5.08E-03,0,0,-0.074701,0,0,0.192092,0,0,0.0302752,0,0,0.0400509,0,0,-0.0272922,0,0
13.4317,5.10E-03,0,0,-0.0670749,0,0,0.196122,0,0,0.0271844,0,0,0.0405602,0,0,-0.0343956,0,0
13.5317,5.12E-03,0,0,-0.0577972,0,0,0.200204,0,0,0.0234243,0,0,0.0410713,0,0,-0.0406521,0,0
13.6317,5.14E-03,0,0,-0.0470963,0,0,0.204337,0,0,0.0190874,0,0,0.0415843,0,0,-0.0459076,0,0
13.7317,5.16E-03,0,0,-0.0352358,0,0,0.208521,0,0,0.0142805,0,0,0.042099,0,0,-0.0500327,0,0
13.8317,5.17E-03,0,0,-0.0225076,0,0,0.212757,0,0,0.00912198,0,0,0.0426154,0,0,-0.0529258,0,0
13.9317,5.19E-03,0,0,-0.00922519,0,0,0.217044,0,0,0.00373883,0,0,0.0431335,0,0,-0.0545157,0,0
14.0317,5.21E-03,0,0,0.00428435,0,0,0.221383,0,0,-0.00173638,0,0,0.0436533,0,0,-0.0547633,0,0
14.1317,5.22E-03,0,0,0.0176884,0,0,0.225775,0,0,-0.00716884,0,0,0.0441748,0,0,-0.0536624,0,0
14.2317,5.24E-03,0,0,0.0306569,0,0,0.230218,0,0,-0.0124248,0,0,0.0446979,0,0,-0.0512401,0,0
14.3317,5.26E-03,0,0,0.0428705,0,0,0.234714,0,0,-0.0173748,0,0,0.0452227,0,0,-0.0475562,0,0
14.4317,5.27E-03,0,0,0.0540285,0,0,0.239263,0,0,-0.0218969,0,0,0.0457489,0,0,-0.0427012,0,0
14.5317,5.29E-03,0,0,0.0638562,0,0,0.243864,0,0,-0.0258799,0,0,0.0462768,0,0,-0.0367948,0,0
14.6317,5.30E-03,0,0,0.0721115,0,0,0.248518,0,0,-0.0292257,0,0,0.0468062,0,0,-0.0299824,0,0
14.7317,5.32E-03,0,0,0.0785911,0,0,0.253225,0,0,-0.0318518,0,0,0.0473371,0,0,-0.0224318,0,0
14.8317,5.33E-03,0,0,0.0831356,0,0,0.257986,0,0,-0.0336936,0,0,0.0478694,0,0,-0.0143288,0,0
14.9317,5.35E-03,0,0,0.0856331,0,0,0.262799,0,0,-0.0347058,0,0,0.0484032,0,0,-0.00587294,0,0
15.0317,5.36E-03,0,0,0.0860219,0,0,0.267666,0,0,-0.0348634,0,0,0.0489385,0,0,0.0027275,0,0
15.1317,5.37E-03,0,0,0.0842926,0,0,0.272587,0,0,-0.0341625,0,0,0.0494751,0,0,0.0112608,0,0
15.2317,5.39E-03,0,0,0.0804878,0,0,0.277562,0,0,-0.0326205,0,0,0.0500131,0,0,0.0195168,0,0
15.3317,5.40E-03,0,0,0.074701,0,0,0.28259,0,0,-0.0302752,0,0,0.0505525,0,0,0.0272922,0,0
15.4317,5.41E-03,0,0,0.0670749,0,0,0.287672,0,0,-0.0271844,0,0,0.0510932,0,0,0.0343956,0,0
15.5317,5.43E-03,0,0,0.0577972,0,0,0.292809,0,0,-0.0234243,0,0,0.0516352,0,0,0.0406521,0,0
15.6317,5.44E-03,0,0,0.0470963,0,0,0.297999,0,0,-0.0190874,0,0,0.0521785,0,0,0.0459076,0,0
15.7317,5.45E-03,0,0,0.0352358,0,0,0.303244,0,0,-0.0142805,0,0,0.052723,0,0,0.0500327,0,0
15.8317,5.46E-03,0,0,0.0225076,0,0,0.308544,0,0,-0.00912198,0,0,0.0532688,0,0,0.0529258,0,0
15.9317,5.48E-03,0,0,0.00922519,0,0,0.313898,0,0,-0.00373883,0,0,0.0538157,0,0,0.0545157,0,0
16.0317,5.49E-03,0.00E+00,0.00E+00,-0.00428435,0,0,0.319307,0,0,0.00173638,0,0,0.0543639,0,0,0.0547633,0,0
16.1317,5.50E-03,0,0,-0.0176884,0,0,0.324771,0,0,0.00716884,0,0,0.0549132,0,0,0.0536624,0,0
16.2317,5.51E-03,0,0,-0.0306569,0,0,0.33029,0,0,0.0124248,0,0,0.0554636,0,0,0.0512401,0,0
16.3317,5.52E-03,0,0,-0.0428705,0,0,0.335864,0,0,0.0173748,0,0,0.0560151,0,0,0.0475562,0,0
16.4317,5.53E-03,0,0,-0.0540285,0,0,0.341493,0,0,0.0218969,0,0,0.0565677,0,0,0.0427012,0,0
16.5317,5.54E-03,0,0,-0.0638562,0,0,0.347177,0,0,0.0258799,0,0,0.0571214,0,0,0.0367948,0,0
16.6317,5.55E-03,0,0,-0.0721115,0,0,0.352917,0,0,0.0292257,0,0,0.0576761,0,0,0.0299824,0,0
16.7317,5.56E-03,0,0,-0.0785911,0,0,0.358712,0,0,0.0318518,0,0,0.0582318,0,0,0.0224318,0,0
16.8317,5.57E-03,0,0,-0.0831356,0,0,0.364563,0,0,0.0336936,0,0,0.0587885,0,0,0.0143288,0,0
16.9317,5.58E-03,0,0,-0.0856331,0,0,0.37047,0,0,0.0347058,0,0,0.0593461,0,0,0.00587294,0,0
17.0317,5.59E-03,0,0,-0.0860219,0,0,0.376433,0,0,0.0348634,0,0,0.0599047,0,0,-0.0027275,0,0
17.1317,5.60E-03,0,0,-0.0842926,0,0,0.382451,0,0,0.0341625,0,0,0.0604642,0,0,-0.0112608,0,0
17.2317,5.61E-03,0,0,-0.0804878,0,0,0.388526,0,0,0.0326205,0,0,0.0610246,0,0,-0.0195168,0,0
17.3317,5.62E-03,0,0,-0.074701,0,0,0.394656,0,0,0.0302752,0,0,0.0615858,0,0,-0.0272922,0,0
17.4317,5.63E-03,0,0,-0.0670749,0,0,0.400843,0,0,0.0271844,0,0,0.0621479,0,0,-0.0343956,0,0
17.5317,5.63E-03,0,0,-0.0577972,0,0,0.407086,0,0,0.0234243,0,0,0.0627108,0,0,-0.0406521,0,0
17.6317,5.64E-03,0,0,-0.0470963,0,0,0.413385,0,0,0.0190874,0,0,0.0632746,0,0,-0.0459076,0,0
17.7317,5.65E-03,0,0,-0.0352358,0,0,0.419741,0,0,0.0142805,0,0,0.063839,0,0,-0.0500327,0,0
17.8317,5.66E-03,0,0,-0.0225076,0,0,0.426153,0,0,0.00912198,0,0,0.0644043,0,0,-0.0529258,0,0
17.9317,5.66E-03,0,0,-0.00922519,0,0,0.432621,0,0,0.00373883,0,0,0.0649702,0,0,-0.0545157,0,0
18.0317,5.67E-03,0,0,0.00428435,0,0,0.439147,0,0,-0.00173638,0,0,0.0655369,0,0,-0.0547633,0,0
18.1317,5.68E-03,0,0,0.0176884,0,0,0.445729,0,0,-0.00716884,0,0,0.0661042,0,0,-0.0536624,0,0
18.2317,5.68E-03,0,0,0.0306569,0,0,0.452368,0,0,-0.0124248,0,0,0.0666722,0,0,-0.0512401,0,0
18.3317,5.69E-03,0,0,0.0428705,0,0,0.459063,0,0,-0.0173748,0,0,0.0672408,0,0,-0.0475562,0,0
18.4317,5.70E-03,0,0,0.0540285,0,0,0.465816,0,0,-0.0218969,0,0,0.0678101,0,0,-0.0427012,0,0
18.5317,5.70E-03,0,0,0.0638562,0,0,0.472625,0,0,-0.0258799,0,0,0.0683799,0,0,-0.0367948,0,0
18.6317,5.71E-03,0,0,0.0721115,0,0,0.479492,0,0,-0.0292257,0,0,0.0689503,0,0,-0.0299824,0,0
18.7317,5.71E-03,0,0,0.0785911,0,0,0.486415,0,0,-0.0318518,0,0,0.0695212,0,0,-0.0224318,0,0
18.8317,5.72E-03,0,0,0.0831356,0,0,0.493396,0,0,-0.0336936,0,0,0.0700927,0,0,-0.0143288,0,0
18.9317,5.72E-03,0,0,0.0856331,0,0,0.500434,0,0,-0.0347058,0,0,0.0706646,0,0,-0.00587294,0,0
19.0317,5.73E-03,0,0,0.0860219,0,0,0.507529,0,0,-0.0348634,0,0,0.071237,0,0,0.0027275,0,0
19.1317,5.73E-03,0,0,0.0842926,0,0,0.514681,0,0,-0.0341625,0,0,0.0718099,0,0,0.0112608,0,0
19.2317,5.74E-03,0,0,0.0804878,0,0,0.521891,0,0,-0.0326205,0,0,0.0723832,0,0,0.0195168,0,0
19.3317,5.74E-03,0,0,0.074701,0,0,0.529158,0,0,-0.0302752,0,0,0.0729569,0,0,0.0272922,0,0
19.4317,5.74E-03,0,0,0.0670749,0,0,0.536482,0,0,-0.0271844,0,0,0.073531,0,0,0.0343956,0,0
19.5317,5.75E-03,0,0,0.0577972,0,0,0.543864,0,0,-0.0234243,0,0,0.0741055,0,0,0.0406521,0,0
19.6317,5.75E-03,0,0,0.0470963,0,0,0.551304,0,0,-0.0190874,0,0,0.0746803,0,0,0.0459076,0,0
19.7317,5.75E-03,0,0,0.0352358,0,0,0.5588,0,0,-0.0142805,0,0,0.0752554,0,0,0.0500327,0,0
19.8317,5.76E-03,0,0,0.0225076,0,0,0.566355,0,0,-0.00912198,0,0,0.0758308,0,0,0.0529258,0,0
19.9317,5.76E-03,0,0,0.00922519,0,0,0.573967,0,0,-0.00373883,0,0,0.0764065,0,0,0.0545157,0,0
20.0317,5.76E-03,0,0,-0.00428435,0,0,0.581636,0,0,0.00173638,0,0,0.0769825,0,0,0.0547633,0,0
20.1317,5.76E-03,0,0,-0.0176884,0,0,0.589363,0,0,0.00716884,0,0,0.0775587,0,0,0.0536624,0,0
20.2317,5.76E-03,0,0,-0.0306569,0,0,0.597148,0,0,0.0124248,0,0,0.0781351,0,0,0.0512401,0,0
20.3317,5.77E-03,0,0,-0.0428705,0,0,0.60499,0,0,0.0173748,0,0,0.0787117,0,0,0.0475562,0,0
20.4317,5.77E-03,0,0,-0.0540285,0,0,0.61289,0,0,0.0218969,0,0,0.0792884,0,0,0.0427012,0,0
20.5317,5.77E-03,0,0,-0.0638562,0,0,0.620848,0,0,0.0258799,0,0,0.0798653,0,0,0.0367948,0,0
20.6317,5.77E-03,0,0,-0.0721115,0,0,0.628863,0,0,0.0292257,0,0,0.0804424,0,0,0.0299824,0,0
20.7317,5.77E-03,0,0,-0.0785911,0,0,0.636936,0,0,0.0318518,0,0,0.0810195,0,0,0.0224318,0,0
20.8317,5.77E-03,0,0,-0.0831356,0,0,0.645067,0,0,0.0336936,0,0,0.0815967,0,0,0.0143288,0,0
20.9317,5.77E-03,0,0,-0.0856331,0,0,0.653256,0,0,0.0347058,0,0,0.082174,0,0,0.00587294,0,0
21.0317,5.77E-03,0,0,-0.0860219,0,0,0.661502,0,0,0.0348634,0,0,8.28E-02,0,0,-0.0027275,0,0
21.1317,0.0057735,0.00E+00,0.00E+00,-0.0842926,0,0,0.669806,0,0,0.0341625,0,0,0.0833287,0,0,-0.0112608,0,0
21.2317,0.0057734,0.00E+00,0.00E+00,-0.0804878,0,0,0.678168,0,0,0.0326205,0,0,0.083906,0,0,-0.0195168,0,0
21.3317,0.00577309,0.00E+00,0.00E+00,-0.074701,0,0,0.686587,0,0,0.0302752,0,0,0.0844834,0,0,-0.0272922,0,0
21.4317,0.00577258,0.00E+00,0.00E+00,-0.0670749,0,0,0.695064,0,0,0.0271844,0,0,0.0850606,0,0,-0.0343956,0,0
21.5317,0.00577185,0.00E+00,0.00E+00,-0.0577972,0,0,0.703599,0,0,0.0234243,0,0,0.0856379,0,0,-0.0406521,0,0
21.6317,0.00577093,0.00E+00,0.00E+00,-0.0470963,0,0,0.712192,0,0,0.0190874,0,0,0.086215,0,0,-0.0459076,0,0
21.7317,0.0057698,0.00E+00,0.00E+00,-0.0352358,0,0,0.720842,0,0,0.0142805,0,0,0.086792,0,0,-0.0500327,0,0
21.8317,0.00576846,0.00E+00,0.00E+00,-0.0225076,0,0,0.72955,0,0,0.00912198,0,0,0.087369,0,0,-0.0529258,0,0
21.9317,0.00576693,0.00E+00,0.00E+00,-0.00922519,0,0,0.738316,0,0,0.00373883,0,0,0.0879457,0,0,-0.0545157,0,0
22.0317,0.00576519,0.00E+00,0.00E+00,0.00428435,0,0,0.747139,0,0,-0.00173638,0,0,0.0885223,0,0,-0.0547633,0,0
22.1317,0.00576325,0.00E+00,0.00E+00,0.0176884,0,0,0.75602,0,0,-0.00716884,0,0,0.0890988,0,0,-0.0536624,0,0
22.2317,0.00576111,0.00E+00,0.00E+00,0.0306569,0,0,0.764959,0,0,-0.0124248,0,0,0.089675,0,0,-0.0512401,0,0
22.3317,0.00575876,0.00E+00,0.00E+00,0.0428705,0,0,0.773955,0,0,-0.0173748,0,0,0.090251,0,0,-0.0475562,0,0
22.4317,0.00575622,0.00E+00,0.00E+00,0.0540285,0,0,0.783009,0,0,-0.0218969,0,0,0.0908267,0,0,-0.0427012,0,0
22.5317,0.00575349,0.00E+00,0.00E+00,0.0638562,0,0,0.792121,0,0,-0.0258799,0,0,0.0914022,0,0,-0.0367948,0,0
22.6317,0.00575055,0.00E+00,0.00E+00,0.0721115,0,0,0.80129,0,0,-0.0292257,0,0,0.0919774,0,0,-0.0299824,0,0
22.7317,0.00574742,0.00E+00,0.00E+00,0.0785911,0,0,0.810516,0,0,-0.0318518,0,0,0.0925523,0,0,-0.0224318,0,0
22.8317,0.00574409,0.00E+00,0.00E+00,0.0831356,0,0,0.8198,0,0,-0.0336936,0,0,0.0931269,0,0,-0.0143288,0,0
22.9317,0.00574056,0.00E+00,0.00E+00,0.0856331,0,0,0.829142,0,0,-0.0347058,0,0,0.0937011,0,0,-0.00587294,0,0
23.0317,0.00573684,0.00E+00,0.00E+00,0.0860219,0,0,0.83854,0,0,-0.0348634,0,0,0.094275,0,0,0.0027275,0,0
23.1317,0.00573293,0.00E+00,0.00E+00,0.0842926,0,0,0.847997,0,0,-0.0341625,0,0,0.0948485,0,0,0.0112608,0,0
23.2317,0.00572882,0.00E+00,0.00E+00,0.0804878,0,0,0.85751,0,0,-0.0326205,0,0,0.0954216,0,0,0.0195168,0,0
23.3317,0.00572452,0.00E+00,0.00E+00,0.074701,0,0,0.867081,0,0,-0.0302752,0,0,0.0959942,0,0,0.0272922,0,0
23.4317,0.00572002,0.00E+00,0.00E+00,0.0670749,0,0,0.876709,0,0,-0.0271844,0,0,0.0965665,0,0,0.0343956,0,0
23.5317,0.00571534,0.00E+00,0.00E+00,0.0577972,0,0,0.886394,0,0,-0.0234243,0,0,0.0971382,0,0,0.0406521,0,0
23.6317,0.00571047,0.00E+00,0.00E+00,0.0470963,0,0,0.896137,0,0,-0.0190874,0,0,0.0977095,0,0,0.0459076,0,0
23.7317,0.0057054,0.00E+00,0.00E+00,0.0352358,0,0,0.905936,0,0,-0.0142805,0,0,0.0982803,0,0,0.0500327,0,0
23.8317,0.00570015,0.00E+00,0.00E+00,0.0225076,0,0,0.915793,0,0,-0.00912198,0,0,0.0988506,0,0,0.0529258,0,0
23.9317,0.00569471,0.00E+00,0.00E+00,0.00922519,0,0,0.925706,0,0,-0.00373883,0,0,0.0994204,0,0,0.0545157,0,0
24.0317,0.00568908,0.00E+00,0.00E+00,-0.00428435,0,0,0.935677,0,0,0.00173638,0,0,0.0999895,0,0,0.0547633,0,0
24.1317,0.00568326,0.00E+00,0.00E+00,-0.0176884,0,0,0.945704,0,0,0.00716884,0,0,0.100558,0,0,0.0536624,0,0
24.2317,0.00567726,0.00E+00,0.00E+00,-0.0306569,0,0,0.955788,0,0,0.0124248,0,0,0.101126,0,0,0.0512401,0,0
24.3317,0.00567107,0.00E+00,0.00E+00,-0.0428705,0,0,0.965929,0,0,0.0173748,0,0,0.101694,0,0,0.0475562,0,0
24.4317,0.0056647,0.00E+00,0.00E+00,-0.0540285,0,0,0.976127,0,0,0.0218969,0,0,0.10226,0,0,0.0427012,0,0
24.5317,0.00565814,0.00E+00,0.00E+00,-0.0638562,0,0,0.986381,0,0,0.0258799,0,0,0.102827,0,0,0.0367948,0,0
24.6317,0.0056514,0.00E+00,0.00E+00,-0.0721115,0,0,0.996692,0,0,0.0292257,0,0,0.103392,0,0,0.0299824,0,0
24.7317,0.00564447,0.00E+00,0.00E+00,-0.0785911,0,0,1.00706,0,0,0.0318518,0,0,0.103957,0,0,0.0224318,0,0
24.8317,0.00563737,0.00E+00,0.00E+00,-0.0831356,0,0,1.01748,0,0,0.0336936,0,0,0.104521,0,0,0.0143288,0,0
24.9317,0.00563008,0.00E+00,0.00E+00,-0.0856331,0,0,1.02796,0,0,0.0347058,0,0,0.105084,0,0,0.00587294,0,0
25.0317,0.00562262,0.00E+00,0.00E+00,-0.0860219,0,0,1.0385,0,0,0.0348634,0,0,0.105647,0,0,-0.0027275,0,0
25.1317,0.00561497,0.00E+00,0.00E+00,-0.0842926,0,0,1.04909,0,0,0.0341625,0,0,0.106209,0,0,-0.0112608,0,0
25.2317,0.00560714,0.00E+00,0.00E+00,-0.0804878,0,0,1.05974,0,0,0.0326205,0,0,0.10677,0,0,-0.0195168,0,0
25.3317,0.00559914,0.00E+00,0.00E+00,-0.074701,0,0,1.07045,0,0,0.0302752,0,0,0.10733,0,0,-0.0272922,0,0
25.4317,0.00559096,0.00E+00,0.00E+00,-0.0670749,0,0,1.08121,0,0,0.0271844,0,0,0.10789,0,0,-0.0343956,0,0
25.5317,0.0055826,0.00E+00,0.00E+00,-0.0577972,0,0,1.09203,0,0,0.0234243,0,0,0.108448,0,0,-0.0406521,0,0
25.6317,0.00557406,0.00E+00,0.00E+00,-0.0470963,0,0,1.1029,0,0,0.0190874,0,0,0.109006,0,0,-0.0459076,0,0
25.7317,0.00556535,0.00E+00,0.00E+00,-0.0352358,0,0,1.11383,0,0,0.0142805,0,0,0.109563,0,0,-0.0500327,0,0
25.8317,0.00555647,0.00E+00,0.00E+00,-0.0225076,0,0,1.12481,0,0,0.00912198,0,0,0.110119,0,0,-0.0529258,0,0
25.9317,0.00554741,0.00E+00,0.00E+00,-0.00922519,0,0,1.13585,0,0,0.00373883,0,0,0.110675,0,0,-0.0545157,0,0
26.0317,5.54E-03,0.00E+00,0.00E+00,0.00428435,0,0,1.14695,0,0,-0.00173638,0,0,0.111229,0,0,-0.0547633,0,0
26.1317,0.00552877,0.00E+00,0.00E+00,0.0176884,0,0,1.1581,0,0,-0.00716884,0,0,0.111782,0,0,-0.0536624,0,0
26.2317,0.00551919,0.00E+00,0.00E+00,0.0306569,0,0,1.1693,0,0,-0.0124248,0,0,0.112335,0,0,-0.0512401,0,0
26.3317,0.00550945,0.00E+00,0.00E+00,0.0428705,0,0,1.18056,0,0,-0.0173748,0,0,0.112886,0,0,-0.0475562,0,0
26.4317,0.00549953,0.00E+00,0.00E+00,0.0540285,0,0,1.19188,0,0,-0.0218969,0,0,0.113436,0,0,-0.0427012,0,0
26.5317,0.00548944,0.00E+00,0.00E+00,0.0638562,0,0,1.20325,0,0,-0.0258799,0,0,0.113986,0,0,-0.0367948,0,0
26.6317,0.00547918,0.00E+00,0.00E+00,0.0721115,0,0,1.21468,0,0,-0.0292257,0,0,0.114534,0,0,-0.0299824,0,0
26.7317,0.00546876,0.00E+00,0.00E+00,0.0785911,0,0,1.22616,0,0,-0.0318518,0,0,0.115082,0,0,-0.0224318,0,0
26.8317,0.00545817,0.00E+00,0.00E+00,0.0831356,0,0,1.23769,0,0,-0.0336936,0,0,0.115628,0,0,-0.0143288,0,0
26.9317,0.00544741,0.00E+00,0.00E+00,0.0856331,0,0,1.24928,0,0,-0.0347058,0,0,0.116173,0,0,-0.00587294,0,0
27.0317,0.00543648,0.00E+00,0.00E+00,0.0860219,0,0,1.26093,0,0,-0.0348634,0,0,0.116718,0,0,0.0027275,0,0
27.1317,0.00542539,0.00E+00,0.00E+00,0.0842926,0,0,1.27263,0,0,-0.0341625,0,0,0.117261,0,0,0.0112608,0,0
27.2317,0.00541413,0.00E+00,0.00E+00,0.0804878,0,0,1.28438,0,0,-0.0326205,0,0,0.117803,0,0,0.0195168,0,0
27.3317,0.00540271,0.00E+00,0.00E+00,0.074701,0,0,1.29619,0,0,-0.0302752,0,0,0.118343,0,0,0.0272922,0,0
27.4317,0.00539113,0.00E+00,0.00E+00,0.0670749,0,0,1.30805,0,0,-0.0271844,0,0,0.118883,0,0,0.0343956,0,0
27.5317,0.00537939,0.00E+00,0.00E+00,0.0577972,0,0,1.31996,0,0,-0.0234243,0,0,0.119422,0,0,0.0406521,0,0
27.6317,0.00536748,0.00E+00,0.00E+00,0.0470963,0,0,1.33193,0,0,-0.0190874,0,0,0.119959,0,0,0.0459076,0,0
27.7317,0.00535541,0.00E+00,0.00E+00,0.0352358,0,0,1.34395,0,0,-0.0142805,0,0,0.120495,0,0,0.0500327,0,0
27.8317,0.00534318,0.00E+00,0.00E+00,0.0225076,0,0,1.35603,0,0,-0.00912198,0,0,0.12103,0,0,0.0529258,0,0
27.9317,0.00533079,0.00E+00,0.00E+00,0.00922519,0,0,1.36816,0,0,-0.00373883,0,0,0.121564,0,0,0.0545157,0,0
28.0317,0.00531825,0.00E+00,0.00E+00,-0.00428435,0,0,1.38034,0,0,0.00173638,0,0,0.122096,0,0,0.0547633,0,0
28.1317,0.00530554,0.00E+00,0.00E+00,-0.0176884,0,0,1.39258,0,0,0.00716884,0,0,0.122627,0,0,0.0536624,0,0
28.2317,0.00529268,0.00E+00,0.00E+00,-0.0306569,0,0,1.40487,0,0,0.0124248,0,0,0.123157,0,0,0.0512401,0,0
28.3317,0.00527966,0.00E+00,0.00E+00,-0.0428705,0,0,1.41721,0,0,0.0173748,0,0,0.123686,0,0,0.0475562,0,0
28.4317,0.00526649,0.00E+00,0.00E+00,-0.0540285,0,0,1.42961,0,0,0.0218969,0,0,0.124213,0,0,0.0427012,0,0
28.5317,0.00525315,0.00E+00,0.00E+00,-0.0638562,0,0,1.44205,0,0,0.0258799,0,0,0.124739,0,0,0.0367948,0,0
28.6317,0.00523967,0.00E+00,0.00E+00,-0.0721115,0,0,1.45455,0,0,0.0292257,0,0,0.125264,0,0,0.0299824,0,0
28.7317,0.00522603,0.00E+00,0.00E+00,-0.0785911,0,0,1.46711,0,0,0.0318518,0,0,0.125787,0,0,0.0224318,0,0
28.8317,0.00521224,0.00E+00,0.00E+00,-0.0831356,0,0,1.47971,0,0,0.0336936,0,0,0.126309,0,0,0.0143288,0,0
28.9317,0.00519829,0.00E+00,0.00E+00,-0.0856331,0,0,1.49237,0,0,0.0347058,0,0,0.12683,0,0,0.00587294,0,0
29.0317,0.0051842,0.00E+00,0.00E+00,-0.0860219,0,0,1.50508,0,0,0.0348634,0,0,0.127349,0,0,-0.0027275,0,0
29.1317,0.00516995,0.00E+00,0.00E+00,-0.0842926,0,0,1.51784,0,0,0.0341625,0,0,0.127866,0,0,-0.0112608,0,0
29.2317,0.00515555,0.00E+00,0.00E+00,-0.0804878,0,0,1.53065,0,0,0.0326205,0,0,0.128383,0,0,-0.0195168,0,0
29.3317,0.00514101,0.00E+00,0.00E+00,-0.074701,0,0,1.54351,0,0,0.0302752,0,0,0.128898,0,0,-0.0272922,0,0
29.4317,0.00512631,0.00E+00,0.00E+00,-0.0670749,0,0,1.55643,0,0,0.0271844,0,0,0.129411,0,0,-0.0343956,0,0
29.5317,0.00511147,0.00E+00,0.00E+00,-0.0577972,0,0,1.5694,0,0,0.0234243,0,0,0.129923,0,0,-0.0406521,0,0
29.6317,0.00509648,0.00E+00,0.00E+00,-0.0470963,0,0,1.58241,0,0,0.0190874,0,0,0.130433,0,0,-0.0459076,0,0
29.7317,0.00508134,0.00E+00,0.00E+00,-0.0352358,0,0,1.59548,0,0,0.0142805,0,0,0.130942,0,0,-0.0500327,0,0
29.8317,0.00506605,0.00E+00,0.00E+00,-0.0225076,0,0,1.6086,0,0,0.00912198,0,0,0.131449,0,0,-0.0529258,0,0
29.9317,0.00505062,0.00E+00,0.00E+00,-0.00922519,0,0,1.62177,0,0,0.00373883,0,0,0.131955,0,0,-0.0545157,0,0
30.0317,0.00503505,0.00E+00,0.00E+00,0.00428435,0,0,1.63499,0,0,-0.00173638,0,0,0.13246,0,0,-0.0547633,0,0
30.1317,0.00501933,0.00E+00,0.00E+00,0.0176884,0,0,1.64827,0,0,-0.00716884,0,0,0.132962,0,0,-0.0536624,0,0
30.2317,0.00500347,0.00E+00,0.00E+00,0.0306569,0,0,1.66159,0,0,-0.0124248,0,0,0.133463,0,0,-0.0512401,0,0
30.3317,0.00498747,0.00E+00,0.00E+00,0.0428705,0,0,1.67496,0,0,-0.0173748,0,0,0.133963,0,0,-0.0475562,0,0
30.4317,0.00497133,0.00E+00,0.00E+00,0.0540285,0,0,1.68838,0,0,-0.0218969,0,0,0.134461,0,0,-0.0427012,0,0
30.5317,0.00495504,0.00E+00,0.00E+00,0.0638562,0,0,1.70185,0,0,-0.0258799,0,0,0.134957,0,0,-0.0367948,0,0
30.6317,0.00493862,0.00E+00,0.00E+00,0.0721115,0,0,1.71537,0,0,-0.0292257,0,0,0.135452,0,0,-0.0299824,0,0
30.7317,0.00492205,0.00E+00,0.00E+00,0.0785911,0,0,1.72894,0,0,-0.0318518,0,0,0.135945,0,0,-0.0224318,0,0
30.8317,0.00490535,0.00E+00,0.00E+00,0.0831356,0,0,1.74256,0,0,-0.0336936,0,0,0.136436,0,0,-0.0143288,0,0
30.9317,0.00488851,0.00E+00,0.00E+00,0.0856331,0,0,1.76E+00,0,0,-0.0347058,0,0,0.136926,0,0,-0.00587294,0,0
31.0317,0.00487153,0.00E+00,0.00E+00,0.0860219,0,0,1.76994,0,0,-0.0348634,0,0,0.137414,0.00E+00,0,0.0027275,0,0
31.1317,4.85E-03,0,0,0.0842926,0,0,1.78371,0,0,-0.0341625,0,0,0.1379,0,0,0.0112608,0,0
31.2317,4.84E-03,0,0,0.0804878,0,0,1.79752,0,0,-0.0326205,0,0,0.138385,0,0,0.0195168,0,0
31.3317,4.82E-03,0,0,0.074701,0,0,1.81139,0,0,-0.0302752,0,0,0.138868,0,0,0.0272922,0,0
31.4317,4.80E-03,0,0,0.0670749,0,0,1.8253,0,0,-0.0271844,0,0,0.139349,0,0,0.0343956,0,0
31.5317,4.78E-03,0,0,0.0577972,0,0,1.83926,0,0,-0.0234243,0,0,0.139828,0,0,0.0406521,0,0
31.6317,4.77E-03,0,0,0.0470963,0,0,1.85326,0,0,-0.0190874,0,0,0.140306,0,0,0.0459076,0,0
31.7317,4.75E-03,0,0,0.0352358,0,0,1.86732,0,0,-0.0142805,0,0,0.140782,0,0,0.0500327,0,0
31.8317,4.73E-03,0,0,0.0225076,0,0,1.88142,0,0,-0.00912198,0,0,0.141256,0,0,0.0529258,0,0
31.9317,4.71E-03,0,0,0.00922519,0,0,1.89557,0,0,-0.00373883,0,0,0.141728,0,0,0.0545157,0,0
32.0317,4.69E-03,0,0,-0.00428435,0,0,1.90977,0,0,0.00173638,0,0,0.142198,0,0,0.0547633,0,0
32.1317,4.68E-03,0,0,-0.0176884,0,0,1.92401,0,0,0.00716884,0,0,0.142667,0,0,0.0536624,0,0
32.2317,4.66E-03,0,0,-0.0306569,0,0,1.9383,0,0,0.0124248,0,0,0.143133,0,0,0.0512401,0,0
32.3317,4.64E-03,0,0,-0.0428705,0,0,1.95264,0,0,0.0173748,0,0,0.143598,0,0,0.0475562,0,0
32.4317,4.62E-03,0,0,-0.0540285,0,0,1.96702,0,0,0.0218969,0,0,0.144061,0,0,0.0427012,0,0
32.5317,4.60E-03,0,0,-0.0638562,0,0,1.98145,0,0,0.0258799,0,0,0.144522,0,0,0.0367948,0,0
32.6317,4.58E-03,0,0,-0.0721115,0,0,1.99592,0,0,0.0292257,0,0,0.144981,0,0,0.0299824,0,0
32.7317,4.56E-03,0,0,-0.0785911,0,0,2.01044,0,0,0.0318518,0,0,0.145438,0,0,0.0224318,0,0
32.8317,4.54E-03,0,0,-0.0831356,0,0,2.02501,0,0,0.0336936,0,0,0.145894,0,0,0.0143288,0,0
32.9317,4.52E-03,0,0,-0.0856331,0,0,2.03962,0,0,0.0347058,0,0,0.146347,0,0,0.00587294,0,0
33.0317,4.50E-03,0,0,-0.0860219,0,0,2.05428,0,0,0.0348634,0,0,0.146798,0,0,-0.0027275,0,0
33.1317,4.48E-03,0,0,-0.0842926,0,0,2.06898,0,0,0.0341625,0,0,0.147248,0,0,-0.0112608,0,0
33.2317,4.46E-03,0,0,-0.0804878,0,0,2.08373,0,0,0.0326205,0,0,0.147695,0,0,-0.0195168,0,0
33.3317,4.44E-03,0,0,-0.074701,0,0,2.09852,0,0,0.0302752,0,0,0.148141,0,0,-0.0272922,0,0
33.4317,4.42E-03,0,0,-0.0670749,0,0,2.11336,0,0,0.0271844,0,0,0.148584,0,0,-0.0343956,0,0
33.5317,4.40E-03,0,0,-0.0577972,0,0,2.12824,0,0,0.0234243,0,0,0.149026,0,0,-0.0406521,0,0
33.6317,4.38E-03,0,0,-0.0470963,0,0,2.14316,0,0,0.0190874,0,0,0.149465,0,0,-0.0459076,0,0
33.7317,4.36E-03,0,0,-0.0352358,0,0,2.15813,0,0,0.0142805,0,0,0.149903,0,0,-0.0500327,0,0
33.8317,4.34E-03,0,0,-0.0225076,0,0,2.17314,0,0,0.00912198,0,0,0.150338,0,0,-0.0529258,0,0
33.9317,4.32E-03,0,0,-0.00922519,0,0,2.1882,0,0,0.00373883,0,0,0.150771,0,0,-0.0545157,0,0
34.0317,4.30E-03,0,0,0.00428435,0,0,2.2033,0,0,-0.00173638,0,0,0.151202,0,0,-0.0547633,0,0
34.1317,4.28E-03,0,0,0.0176884,0,0,2.21844,0,0,-0.00716884,0,0,0.151632,0,0,-0.0536624,0,0
34.2317,4.26E-03,0,0,0.0306569,0,0,2.23362,0,0,-0.0124248,0,0,0.152059,0,0,-0.0512401,0,0
34.3317,4.24E-03,0,0,0.0428705,0,0,2.24885,0,0,-0.0173748,0,0,0.152484,0,0,-0.0475562,0,0
34.4317,4.22E-03,0,0,0.0540285,0,0,2.26412,0,0,-0.0218969,0,0,0.152906,0,0,-0.0427012,0,0
34.5317,4.20E-03,0,0,0.0638562,0,0,2.27943,0,0,-0.0258799,0,0,0.153327,0,0,-0.0367948,0,0
34.6317,4.17E-03,0,0,0.0721115,0,0,2.29478,0,0,-0.0292257,0,0,0.153746,0,0,-0.0299824,0,0
34.7317,4.15E-03,0,0,0.0785911,0,0,2.31018,0,0,-0.0318518,0,0,0.154162,0,0,-0.0224318,0,0
34.8317,4.13E-03,0,0,0.0831356,0,0,2.32562,0,0,-0.0336936,0,0,0.154576,0,0,-0.0143288,0,0
34.9317,4.11E-03,0,0,0.0856331,0,0,2.3411,0,0,-0.0347058,0,0,0.154988,0,0,-0.00587294,0,0
35.0317,4.09E-03,0,0,0.0860219,0,0,2.35661,0,0,-0.0348634,0,0,0.155398,0,0,0.0027275,0,0
35.1317,4.07E-03,0,0,0.0842926,0,0,2.37217,0,0,-0.0341625,0,0,0.155806,0,0,0.0112608,0,0
35.2317,4.04E-03,0,0,0.0804878,0,0,2.38778,0,0,-0.0326205,0,0,0.156212,0,0,0.0195168,0,0
35.3317,4.02E-03,0,0,0.074701,0,0,2.40342,0,0,-0.0302752,0,0,0.156615,0,0,0.0272922,0,0
35.4317,4.00E-03,0,0,0.0670749,0,0,2.4191,0,0,-0.0271844,0,0,0.157016,0,0,0.0343956,0,0
35.5317,3.98E-03,0,0,0.0577972,0,0,2.43482,0,0,-0.0234243,0,0,0.157415,0,0,0.0406521,0,0
35.6317,3.95E-03,0,0,0.0470963,0,0,2.45058,0,0,-0.0190874,0,0,0.157811,0,0,0.0459076,0,0
35.7317,3.93E-03,0,0,0.0352358,0,0,2.46638,0,0,-0.0142805,0,0,0.158206,0,0,0.0500327,0,0
35.8317,3.91E-03,0,0,0.0225076,0,0,2.48222,0,0,-0.00912198,0,0,0.158598,0,0,0.0529258,0,0
35.9317,3.89E-03,0,0,0.00922519,0,0,2.4981,0,0,-0.00373883,0,0,0.158988,0,0,0.0545157,0,0
36.0317,3.86E-03,0.00E+00,0.00E+00,-0.00428435,0,0,2.51402,0,0,0.00173638,0,0,0.159375,0,0,0.0547633,0,0
36.1317,3.84E-03,0,0,-0.0176884,0,0,2.52998,0,0,0.00716884,0,0,0.15976,0,0,0.0536624,0,0
36.2317,3.82E-03,0,0,-0.0306569,0,0,2.54597,0,0,0.0124248,0,0,0.160143,0,0,0.0512401,0,0
36.3317,3.79E-03,0,0,-0.0428705,0,0,2.56201,0,0,0.0173748,0,0,0.160524,0,0,0.0475562,0,0
36.4317,3.77E-03,0,0,-0.0540285,0,0,2.57808,0,0,0.0218969,0,0,0.160902,0,0,0.0427012,0,0
36.5317,3.75E-03,0,0,-0.0638562,0,0,2.59419,0,0,0.0258799,0,0,0.161278,0,0,0.0367948,0,0
36.6317,3.72E-03,0,0,-0.0721115,0,0,2.61033,0,0,0.0292257,0,0,0.161651,0,0,0.0299824,0,0
36.7317,3.70E-03,0,0,-0.0785911,0,0,2.62652,0,0,0.0318518,0,0,0.162023,0,0,0.0224318,0,0
36.8317,3.68E-03,0,0,-0.0831356,0,0,2.64274,0,0,0.0336936,0,0,0.162391,0,0,0.0143288,0,0
36.9317,3.65E-03,0,0,-0.0856331,0,0,2.65899,0,0,0.0347058,0,0,0.162758,0,0,0.00587294,0,0
37.0317,3.63E-03,0,0,-0.0860219,0,0,2.67529,0,0,0.0348634,0,0,0.163122,0,0,-0.0027275,0,0
37.1317,3.60E-03,0,0,-0.0842926,0,0,2.69162,0,0,0.0341625,0,0,0.163484,0,0,-0.0112608,0,0
37.2317,3.58E-03,0,0,-0.0804878,0,0,2.70798,0,0,0.0326205,0,0,0.163843,0,0,-0.0195168,0,0
37.3317,3.56E-03,0,0,-0.074701,0,0,2.72439,0,0,0.0302752,0,0,0.1642,0,0,-0.0272922,0,0
37.4317,3.53E-03,0,0,-0.0670749,0,0,2.74082,0,0,0.0271844,0,0,0.164554,0,0,-0.0343956,0,0
37.5317,3.51E-03,0,0,-0.0577972,0,0,2.7573,0,0,0.0234243,0,0,0.164906,0,0,-0.0406521,0,0
37.6317,3.48E-03,0,0,-0.0470963,0,0,2.77381,0,0,0.0190874,0,0,0.165256,0,0,-0.0459076,0,0
37.7317,3.46E-03,0,0,-0.0352358,0,0,2.79035,0,0,0.0142805,0,0,0.165603,0,0,-0.0500327,0,0
37.8317,3.43E-03,0,0,-0.0225076,0,0,2.80693,0,0,0.00912198,0,0,0.165948,0,0,-0.0529258,0,0
37.9317,3.41E-03,0,0,-0.00922519,0,0,2.82354,0,0,0.00373883,0,0,0.16629,0,0,-0.0545157,0,0
38.0317,3.38E-03,0,0,0.00428435,0,0,2.84018,0,0,-0.00173638,0,0,0.166629,0,0,-0.0547633,0,0
38.1317,3.36E-03,0,0,0.0176884,0,0,2.85686,0,0,-0.00716884,0,0,0.166967,0,0,-0.0536624,0,0
38.2317,3.33E-03,0,0,0.0306569,0,0,2.87358,0,0,-0.0124248,0,0,0.167301,0,0,-0.0512401,0,0
38.3317,3.31E-03,0,0,0.0428705,0,0,2.89032,0,0,-0.0173748,0,0,0.167634,0,0,-0.0475562,0,0
38.4317,3.28E-03,0,0,0.0540285,0,0,2.9071,0,0,-0.0218969,0,0,0.167963,0,0,-0.0427012,0,0
38.5317,3.26E-03,0,0,0.0638562,0,0,2.92392,0,0,-0.0258799,0,0,0.168291,0,0,-0.0367948,0,0
38.6317,3.23E-03,0,0,0.0721115,0,0,2.94076,0,0,-0.0292257,0,0,0.168615,0,0,-0.0299824,0,0
38.7317,3.21E-03,0,0,0.0785911,0,0,2.95764,0,0,-0.0318518,0,0,0.168937,0,0,-0.0224318,0,0
38.8317,3.18E-03,0,0,0.0831356,0,0,2.97455,0,0,-0.0336936,0,0,0.169257,0,0,-0.0143288,0,0
38.9317,3.16E-03,0,0,0.0856331,0,0,2.99149,0,0,-0.0347058,0,0,0.169574,0,0,-0.00587294,0,0
39.0317,3.13E-03,0,0,0.0860219,0,0,3.00846,0,0,-0.0348634,0,0,0.169889,0,0,0.0027275,0,0
39.1317,3.11E-03,0,0,0.0842926,0,0,3.02547,0,0,-0.0341625,0,0,0.170201,0,0,0.0112608,0,0
39.2317,3.08E-03,0,0,0.0804878,0,0,3.0425,0,0,-0.0326205,0,0,0.17051,0,0,0.0195168,0,0
39.3317,3.05E-03,0,0,0.074701,0,0,3.05957,0,0,-0.0302752,0,0,0.170817,0,0,0.0272922,0,0
39.4317,3.03E-03,0,0,0.0670749,0,0,3.07667,0,0,-0.0271844,0,0,0.171121,0,0,0.0343956,0,0
39.5317,3.00E-03,0,0,0.0577972,0,0,3.09379,0,0,-0.0234243,0,0,0.171422,0,0,0.0406521,0,0
39.6317,2.98E-03,0,0,0.0470963,0,0,3.11095,0,0,-0.0190874,0,0,0.171721,0,0,0.0459076,0,0
39.7317,2.95E-03,0,0,0.0352358,0,0,3.12814,0,0,-0.0142805,0,0,0.172018,0,0,0.0500327,0,0
39.8317,2.92E-03,0,0,0.0225076,0,0,3.14536,0,0,-0.00912198,0,0,0.172311,0,0,0.0529258,0,0
39.9317,2.90E-03,0,0,0.00922519,0,0,3.1626,0,0,-0.00373883,0,0,0.172603,0,0,0.0545157,0,0
40.0317,2.87E-03,0,0,-0.00428435,0,0,3.17988,0,0,0.00173638,0,0,0.172891,0,0,0.0547633,0,0
40.1317,2.85E-03,0,0,-0.0176884,0,0,3.19718,0,0,0.00716884,0,0,0.173177,0,0,0.0536624,0,0
40.2317,2.82E-03,0,0,-0.0306569,0,0,3.21451,0,0,0.0124248,0,0,0.17346,0,0,0.0512401,0,0
40.3317,2.79E-03,0,0,-0.0428705,0,0,3.23187,0,0,0.0173748,0,0,0.173741,0,0,0.0475562,0,0
40.4317,2.77E-03,0,0,-0.0540285,0,0,3.24926,0,0,0.0218969,0,0,0.174019,0,0,0.0427012,0,0
40.5317,2.74E-03,0,0,-0.0638562,0,0,3.26667,0,0,0.0258799,0,0,0.174294,0,0,0.0367948,0,0
40.6317,2.71E-03,0,0,-0.0721115,0,0,3.28412,0,0,0.0292257,0,0,0.174566,0,0,0.0299824,0,0
40.7317,2.68E-03,0,0,-0.0785911,0,0,3.30159,0,0,0.0318518,0,0,0.174836,0,0,0.0224318,0,0
40.8317,2.66E-03,0,0,-0.0831356,0,0,3.31909,0,0,0.0336936,0,0,0.175103,0,0,0.0143288,0,0
40.9317,2.63E-03,0,0,-0.0856331,0,0,3.33661,0.00E+00,0,0.0347058,0,0,0.175368,0,0,0.00587294,0,0
41.0317,2.60E-03,0,0,-0.0860219,0,0,3.35416,0,0,0.0348634,0,0,0.175629,0,0,-0.0027275,0,0
41.1317,2.58E-03,0.00E+00,0.00E+00,-0.0842926,0,0,3.37173,0,0,0.0341625,0,0,0.175888,0,0,-0.0112608,0,0
41.2317,2.55E-03,0.00E+00,0.00E+00,-0.0804878,0,0,3.38934,0,0,0.0326205,0,0,0.176145,0,0,-0.0195168,0,0
41.3317,2.52E-03,0.00E+00,0.00E+00,-0.074701,0,0,3.40696,0,0,0.0302752,0,0,0.176398,0,0,-0.0272922,0,0
41.4317,2.50E-03,0.00E+00,0.00E+00,-0.0670749,0,0,3.42462,0,0,0.0271844,0,0,0.176649,0,0,-0.0343956,0,0
41.5317,2.47E-03,0.00E+00,0.00E+00,-0.0577972,0,0,3.44229,0,0,0.0234243,0,0,0.176897,0,0,-0.0406521,0,0
41.6317,2.44E-03,0.00E+00,0.00E+00,-0.0470963,0,0,3.46,0,0,0.0190874,0,0,0.177143,0,0,-0.0459076,0,0
41.7317,2.41E-03,0.00E+00,0.00E+00,-0.0352358,0,0,3.47772,0,0,0.0142805,0,0,0.177385,0,0,-0.0500327,0,0
41.8317,2.39E-03,0.00E+00,0.00E+00,-0.0225076,0,0,3.49547,0,0,0.00912198,0,0,0.177625,0,0,-0.0529258,0,0
41.9317,2.36E-03,0.00E+00,0.00E+00,-0.00922519,0,0,3.51325,0,0,0.00373883,0,0,0.177862,0,0,-0.0545157,0,0
42.0317,2.33E-03,0.00E+00,0.00E+00,0.00428435,0,0,3.53104,0,0,-0.00173638,0,0,0.178097,0,0,-0.0547633,0,0
42.1317,0.00230204,0,0,0.0176884,0,0,3.54887,0,0,-0.00716884,0,0,0.178328,0,0,-0.0536624,0,0
42.2317,0.00227424,0,0,0.0306569,0,0,3.56671,0,0,-0.0124248,0,0,0.178557,0,0,-0.0512401,0,0
42.3317,0.00224639,0,0,0.0428705,0,0,3.58458,0,0,-0.0173748,0,0,0.178783,0,0,-0.0475562,0,0
42.4317,0.00221847,0,0,0.0540285,0,0,3.60247,0,0,-0.0218969,0,0,0.179007,0,0,-0.0427012,0,0
42.5317,0.00219051,0,0,0.0638562,0,0,3.62038,0,0,-0.0258799,0,0,0.179227,0,0,-0.0367948,0,0
42.6317,0.00216249,0,0,0.0721115,0,0,3.63831,0,0,-0.0292257,0,0,0.179445,0,0,-0.0299824,0,0
42.7317,0.00213442,0,0,0.0785911,0,0,3.65627,0,0,-0.0318518,0,0,0.179659,0,0,-0.0224318,0,0
42.8317,0.00210629,0,0,0.0831356,0,0,3.67424,0,0,-0.0336936,0,0,0.179871,0,0,-0.0143288,0,0
42.9317,0.00207812,0,0,0.0856331,0,0,3.69224,0,0,-0.0347058,0,0,0.180081,0,0,-0.00587294,0,0
43.0317,0.00204989,0,0,0.0860219,0,0,3.71026,0,0,-0.0348634,0,0,0.180287,0,0,0.0027275,0,0
43.1317,0.00202162,0,0,0.0842926,0,0,3.7283,0,0,-0.0341625,0,0,0.180491,0,0,0.0112608,0,0
43.2317,0.00199329,0,0,0.0804878,0,0,3.74636,0,0,-0.0326205,0,0,0.180691,0,0,0.0195168,0,0
43.3317,0.00196491,0,0,0.074701,0,0,3.76444,0,0,-0.0302752,0,0,0.180889,0,0,0.0272922,0,0
43.4317,0.00193649,0,0,0.0670749,0,0,3.78254,0,0,-0.0271844,0,0,0.181084,0,0,0.0343956,0,0
43.5317,0.00190802,0,0,0.0577972,0,0,3.80065,0,0,-0.0234243,0,0,0.181277,0,0,0.0406521,0,0
43.6317,0.0018795,0,0,0.0470963,0,0,3.81879,0,0,-0.0190874,0,0,0.181466,0,0,0.0459076,0,0
43.7317,0.00185094,0,0,0.0352358,0,0,3.83695,0,0,-0.0142805,0,0,0.181653,0,0,0.0500327,0,0
43.8317,0.00182233,0,0,0.0225076,0,0,3.85512,0,0,-0.00912198,0,0,0.181836,0,0,0.0529258,0,0
43.9317,0.00179368,0,0,0.00922519,0,0,3.87331,0,0,-0.00373883,0,0,0.182017,0,0,0.0545157,0,0
44.0317,0.00176498,0,0,-0.00428435,0,0,3.89152,0,0,0.00173638,0,0,0.182195,0,0,0.0547633,0,0
44.1317,0.00173625,0,0,-0.0176884,0,0,3.90975,0,0,0.00716884,0,0,0.18237,0,0,0.0536624,0,0
44.2317,0.00170746,0,0,-0.0306569,0,0,3.928,0,0,0.0124248,0,0,0.182542,0,0,0.0512401,0,0
44.3317,0.00167864,0,0,-0.0428705,0,0,3.94626,0,0,0.0173748,0,0,0.182711,0,0,0.0475562,0,0
44.4317,0.00164978,0,0,-0.0540285,0,0,3.96454,0,0,0.0218969,0,0,0.182878,0,0,0.0427012,0,0
44.5317,0.00162087,0,0,-0.0638562,0,0,3.98284,0,0,0.0258799,0,0,0.183041,0,0,0.0367948,0,0
44.6317,0.00159193,0,0,-0.0721115,0,0,4.00115,0,0,0.0292257,0,0,0.183202,0,0,0.0299824,0,0
44.7317,0.00156295,0,0,-0.0785911,0,0,4.01948,0,0,0.0318518,0,0,0.18336,0,0,0.0224318,0,0
44.8317,0.00153393,0,0,-0.0831356,0,0,4.03782,0,0,0.0336936,0,0,0.183515,0,0,0.0143288,0,0
44.9317,0.00150487,0,0,-0.0856331,0,0,4.05618,0,0,0.0347058,0,0,0.183667,0,0,0.00587294,0,0
45.0317,0.00147578,0,0,-0.0860219,0,0,4.07455,0,0,0.0348634,0,0,0.183816,0,0,-0.0027275,0,0
45.1317,0.00144665,0,0,-0.0842926,0,0,4.09294,0,0,0.0341625,0,0,0.183962,0,0,-0.0112608,0,0
45.2317,0.00141749,0,0,-0.0804878,0,0,4.11135,0,0,0.0326205,0,0,0.184105,0,0,-0.0195168,0,0
45.3317,0.00138829,0,0,-0.074701,0,0,4.12976,0,0,0.0302752,0,0,0.184245,0,0,-0.0272922,0,0
45.4317,0.00135906,0,0,-0.0670749,0,0,4.1482,0,0,0.0271844,0,0,0.184383,0,0,-0.0343956,0,0
45.5317,0.00132979,0,0,-0.0577972,0,0,4.16664,0,0,0.0234243,0,0,0.184517,0,0,-0.0406521,0,0
45.6317,0.00130049,0,0,-0.0470963,0,0,4.1851,0,0,0.0190874,0,0,0.184649,0,0,-0.0459076,0,0
45.7317,0.00127116,0,0,-0.0352358,0,0,4.20357,0,0,0.0142805,0,0,0.184777,0,0,-0.0500327,0,0
45.8317,0.0012418,0,0,-0.0225076,0,0,4.22205,0,0,0.00912198,0,0,0.184903,0,0,-0.0529258,0,0
45.9317,0.00121242,0,0,-0.00922519,0,0,4.24055,0,0,0.00373883,0,0,0.185026,0,0,-0.0545157,0,0
46.0317,0.001183,0,0,0.00428435,0,0,4.25906,0,0,-0.00173638,0,0,0.185145,0,0,-0.0547633,0,0
46.1317,0.00115355,0,0,0.0176884,0,0,4.27758,0,0,-0.00716884,0,0,0.185262,0,0,-0.0536624,0,0
46.2317,0.00112407,0,0,0.0306569,0,0,4.29611,0,0,-0.0124248,0,0,0.185376,0,0,-0.0512401,0,0
46.3317,0.00109457,0,0,0.0428705,0,0,4.31465,0,0,-0.0173748,0,0,0.185487,0,0,-0.0475562,0,0
46.4317,0.00106504,0,0,0.0540285,0,0,4.33321,0,0,-0.0218969,0,0,0.185595,0,0,-0.0427012,0,0
46.5317,0.00103549,0,0,0.0638562,0,0,4.35177,0,0,-0.0258799,0,0,0.1857,0,0,-0.0367948,0,0
46.6317,0.00100591,0,0,0.0721115,0,0,4.37035,0,0,-0.0292257,0,0,0.185802,0,0,-0.0299824,0,0
46.7317,0.000976306,0,0,0.0785911,0,0,4.38893,0,0,-0.0318518,0,0,0.185901,0,0,-0.0224318,0,0
46.8317,0.000946679,0,0,0.0831356,0,0,4.40753,0,0,-0.0336936,0,0,0.185997,0,0,-0.0143288,0,0
46.9317,0.000917029,0,0,0.0856331,0,0,4.42613,0,0,-0.0347058,0,0,0.18609,0,0,-0.00587294,0,0
47.0317,0.000887357,0,0,0.0860219,0,0,4.44475,0,0,-0.0348634,0,0,0.186181,0,0,0.0027275,0,0
47.1317,0.000857664,0,0,0.0842926,0,0,4.46337,0,0,-0.0341625,0,0,0.186268,0,0,0.0112608,0,0
47.2317,0.00082795,0,0,0.0804878,0,0,4.482,0,0,-0.0326205,0,0,0.186352,0,0,0.0195168,0,0
47.3317,0.000798216,0,0,0.074701,0,0,4.50064,0,0,-0.0302752,0,0,0.186434,0,0,0.0272922,0,0
47.4317,0.000768463,0,0,0.0670749,0,0,4.51929,0,0,-0.0271844,0,0,0.186512,0,0,0.0343956,0,0
47.5317,0.000738691,0,0,0.0577972,0,0,4.53794,0,0,-0.0234243,0,0,0.186587,0,0,0.0406521,0,0
47.6317,0.000708902,0,0,0.0470963,0,0,4.5566,0,0,-0.0190874,0,0,0.18666,0,0,0.0459076,0,0
47.7317,0.000679095,0,0,0.0352358,0,0,4.57527,0,0,-0.0142805,0,0,0.186729,0,0,0.0500327,0,0
47.8317,0.000649272,0,0,0.0225076,0,0,4.59395,0,0,-0.00912198,0,0,0.186795,0,0,0.0529258,0,0
47.9317,0.000619434,0,0,0.00922519,0,0,4.61263,0,0,-0.00373883,0,0,0.186859,0,0,0.0545157,0,0
48.0317,0.000589581,0,0,-0.00428435,0,0,4.63132,0,0,0.00173638,0,0,0.186919,0,0,0.0547633,0,0
48.1317,0.000559713,0,0,-0.0176884,0,0,4.65002,0,0,0.00716884,0,0,0.186977,0,0,0.0536624,0,0
48.2317,0.000529832,0,0,-0.0306569,0,0,4.66872,0,0,0.0124248,0,0,0.187031,0,0,0.0512401,0,0
48.3317,0.000499939,0,0,-0.0428705,0,0,4.68742,0,0,0.0173748,0,0,0.187083,0,0,0.0475562,0,0
48.4317,0.000470033,0,0,-0.0540285,0,0,4.70613,0,0,0.0218969,0,0,0.187131,0,0,0.0427012,0,0
48.5317,0.000440116,0,0,-0.0638562,0,0,4.72485,0,0,0.0258799,0,0,0.187177,0,0,0.0367948,0,0
48.6317,0.000410188,0,0,-0.0721115,0,0,4.74357,0,0,0.0292257,0,0,0.187219,0,0,0.0299824,0,0
48.7317,0.000380251,0,0,-0.0785911,0,0,4.76229,0,0,0.0318518,0,0,0.187259,0,0,0.0224318,0,0
48.8317,0.000350304,0,0,-0.0831356,0,0,4.78102,0,0,0.0336936,0,0,0.187295,0,0,0.0143288,0,0
48.9317,0.000320349,0,0,-0.0856331,0,0,4.79975,0,0,0.0347058,0,0,0.187329,0,0,0.00587294,0,0
49.0317,0.000290387,0,0,-0.0860219,0,0,4.81849,0,0,0.0348634,0,0,0.187359,0,0,-0.0027275,0,0
49.1317,0.000260417,0,0,-0.0842926,0,0,4.83722,0,0,0.0341625,0,0,0.187387,0,0,-0.0112608,0,0
49.2317,0.000230441,0,0,-0.0804878,0,0,4.85596,0,0,0.0326205,0,0,0.187411,0,0,-0.0195168,0,0
49.3317,0.00020046,0,0,-0.074701,0,0,4.87471,0,0,0.0302752,0,0,0.187433,0,0,-0.0272922,0,0
49.4317,0.000170474,0,0,-0.0670749,0,0,4.89345,0,0,0.0271844,0,0,0.187452,0,0,-0.0343956,0,0
49.5317,0.000140483,0,0,-0.0577972,0,0,4.9122,0,0,0.0234243,0,0,0.187467,0,0,-0.0406521,0,0
49.6317,0.00011049,0,0,-0.0470963,0,0,4.93094,0,0,0.0190874,0,0,0.18748,0,0,-0.0459076,0,0
49.7317,8.05E-05,0,0,-0.0352358,0,0,4.94969,0,0,0.0142805,0,0,0.187489,0,0,-0.0500327,0,0
49.8317,5.05E-05,0,0,-0.0225076,0,0,4.96844,0,0,0.00912198,0,0,0.187496,0,0,-0.0529258,0,0
49.9317,2.05E-05,0,0,-0.00922519,0,0,4.98719,0,0,0.00373883,0,0,0.187499,0,0,-0.0545157,0,0
50.0317,-9.50E-06,0,0,0.00428435,0,0,5.00594,0,0,-0.00173638,0,0,0.1875,0,0,-0.0547633,0,0
50.1317,-3.95E-05,0,0,0.0176884,0,0,5.02469,0,0,-0.00716884,0,0,0.187497,0,0,-0.0536624,0,0
50.2317,-6.95E-05,0,0,0.0306569,0,0,5.04344,0,0,-0.0124248,0,0,0.187492,0,0,-0.0512401,0,0
50.3317,-9.95E-05,0,0,0.0428705,0,0,5.06219,0,0,-0.0173748,0,0,0.187484,0,0,-0.0475562,0,0
50.4317,-0.000129495,0,0,0.0540285,0,0,5.08094,0,0,-0.0218969,0,0,0.187472,0,0,-0.0427012,0,0
50.5317,-0.000159486,0,0,0.0638562,0,0,5.09968,0,0,-0.0258799,0,0,0.187458,0,0,-0.0367948,0,0
50.6317,-0.000189474,0,0,0.0721115,0,0,5.11843,0,0,-0.0292257,0,0,0.18744,0,0,-0.0299824,0,0
50.7317,-0.000219457,0,0,0.0785911,0,0,5.13717,0,0,-0.0318518,0,0,0.18742,0,0,-0.0224318,0,0
50.8317,-0.000249435,0,0,0.0831356,0,0,5.15591,0,0,-0.0336936,0,0,0.187396,0,0,-0.0143288,0,0
50.9317,-0.000279407,0,0,0.0856331,0,0,5.17465,0,0,-0.0347058,0,0,0.18737,0,0,-0.00587294,0,0
51.0317,-0.000309372,0,0,0.0860219,0,0,5.19339,0,0,-0.0348634,0,0,0.18734,0,0,0.0027275,0,0
51.1317,-0.00033933,0,0,0.0842926,0,0,5.21212,0,0,-0.0341625,0,0,0.187308,0,0,0.0112608,0,0
51.2317,-0.00036928,0,0,0.0804878,0,0,5.23085,0,0,-0.0326205,0,0,0.187273,0,0,0.0195168,0,0
51.3317,-0.000399221,0,0,0.074701,0,0,5.24957,0,0,-0.0302752,0,0,0.187234,0,0,0.0272922,0,0
51.4317,-0.000429152,0,0,0.0670749,0,0,5.26829,0,0,-0.0271844,0,0,0.187193,0,0,0.0343956,0,0
51.5317,-0.000459073,0,0,0.0577972,0,0,5.28701,0,0,-0.0234243,0,0,0.187148,0,0,0.0406521,0,0
51.6317,-0.000488983,0,0,0.0470963,0,0,5.30572,0,0,-0.0190874,0,0,0.187101,0,0,0.0459076,0,0
51.7317,-0.000518881,0,0,0.0352358,0,0,5.32443,0,0,-0.0142805,0,0,0.18705,0,0,0.0500327,0,0
51.8317,-0.000548767,0,0,0.0225076,0,0,5.34313,0,0,-0.00912198,0,0,0.186997,0,0,0.0529258,0,0
51.9317,-0.000578639,0,0,0.00922519,0,0,5.36183,0,0,-0.00373883,0,0,0.186941,0,0,0.0545157,0,0
52.0317,-0.000608498,0,0,-0.00428435,0,0,5.38052,0,0,0.00173638,0,0,0.186881,0,0,0.0547633,0,0
52.1317,-0.000638342,0,0,-0.0176884,0,0,5.39921,0,0,0.00716884,0,0,0.186819,0,0,0.0536624,0,0
52.2317,-0.000668171,0,0,-0.0306569,0,0,5.41788,0,0,0.0124248,0,0,0.186754,0,0,0.0512401,0,0
52.3317,-0.000697983,0,0,-0.0428705,0,0,5.43656,0,0,0.0173748,0,0,0.186685,0,0,0.0475562,0,0
52.4317,-0.000727779,0,0,-0.0540285,0,0,5.45522,0,0,0.0218969,0,0,0.186614,0,0,0.0427012,0,0
52.5317,-0.000757557,0,0,-0.0638562,0,0,5.47388,0,0,0.0258799,0,0,0.18654,0,0,0.0367948,0,0
52.6317,-0.000787317,0,0,-0.0721115,0,0,5.49253,0,0,0.0292257,0,0,0.186463,0,0,0.0299824,0,0
52.7317,-0.000817058,0,0,-0.0785911,0,0,5.51117,0,0,0.0318518,0,0,0.186382,0,0,0.0224318,0,0
52.8317,-0.00084678,0,0,-0.0831356,0,0,5.52981,0,0,0.0336936,0,0,0.186299,0,0,0.0143288,0,0
52.9317,-0.000876481,0,0,-0.0856331,0,0,5.54843,0,0,0.0347058,0,0,0.186213,0,0,0.00587294,0,0
53.0317,-0.000906161,0,0,-0.0860219,0,0,5.56705,0,0,0.0348634,0,0,0.186124,0,0,-0.0027275,0,0
53.1317,-0.000935819,0,0,-0.0842926,0,0,5.58566,0,0,0.0341625,0,0,0.186032,0,0,-0.0112608,0,0
53.2317,-0.000965454,0,0,-0.0804878,0,0,5.60425,0,0,0.0326205,0,0,0.185937,0,0,-0.0195168,0,0
53.3317,-0.000995066,0,0,-0.074701,0,0,5.62284,0,0,0.0302752,0,0,0.185839,0,0,-0.0272922,0,0
53.4317,-0.00102465,0,0,-0.0670749,0,0,5.64142,0,0,0.0271844,0,0,0.185738,0,0,-0.0343956,0,0
53.5317,-0.00105422,0,0,-0.0577972,0,0,5.65999,0,0,0.0234243,0,0,0.185634,0,0,-0.0406521,0,0
53.6317,-0.00108376,0,0,-0.0470963,0,0,5.67855,0,0,0.0190874,0,0,0.185527,0,0,-0.0459076,0,0
53.7317,-0.00111327,0,0,-0.0352358,0,0,5.6971,0,0,0.0142805,0,0,0.185417,0,0,-0.0500327,0,0
53.8317,-0.00114275,0,0,-0.0225076,0,0,5.71563,0,0,0.00912198,0,0,0.185304,0,0,-0.0529258,0,0
53.9317,-0.00117221,0,0,-0.00922519,0,0,5.73416,0,0,0.00373883,0,0,0.185188,0,0,-0.0545157,0,0
54.0317,-0.00120164,0,0,0.00428435,0,0,5.75267,0,0,-0.00173638,0,0,0.18507,0,0,-0.0547633,0,0
54.1317,-0.00123104,0,0,0.0176884,0,0,5.77117,0,0,-0.00716884,0,0,0.184948,0,0,-0.0536624,0,0
54.2317,-0.00126041,0,0,0.0306569,0,0,5.78966,0,0,-0.0124248,0,0,0.184824,0,0,-0.0512401,0,0
54.3317,-0.00128975,0,0,0.0428705,0,0,5.80814,0,0,-0.0173748,0,0,0.184696,0,0,-0.0475562,0,0
54.4317,-0.00131906,0,0,0.0540285,0,0,5.8266,0,0,-0.0218969,0,0,0.184566,0,0,-0.0427012,0,0
54.5317,-0.00134834,0,0,0.0638562,0,0,5.84505,0,0,-0.0258799,0,0,0.184432,0,0,-0.0367948,0,0
54.6317,-0.00137758,0,0,0.0721115,0,0,5.86348,0,0,-0.0292257,0,0,0.184296,0,0,-0.0299824,0,0
54.7317,-0.00140679,0,0,0.0785911,0,0,5.88191,0,0,-0.0318518,0,0,0.184157,0,0,-0.0224318,0,0
54.8317,-0.00143597,0,0,0.0831356,0,0,5.90032,0,0,-0.0336936,0,0,0.184015,0,0,-0.0143288,0,0
54.9317,-0.00146511,0,0,0.0856331,0,0,5.91871,0,0,-0.0347058,0,0,0.18387,0,0,-0.00587294,0,0
55.0317,-0.00149422,0,0,0.0860219,0,0,5.93709,0,0,-0.0348634,0,0,0.183722,0,0,0.0027275,0,0
55.1317,-0.00152329,0,0,0.0842926,0,0,5.95545,0,0,-0.0341625,0,0,0.183571,0,0,0.0112608,0,0
55.2317,-0.00155232,0,0,0.0804878,0,0,5.9738,0,0,-0.0326205,0,0,0.183417,0,0,0.0195168,0,0
55.3317,-0.00158132,0,0,0.074701,0,0,5.99214,0,0,-0.0302752,0,0,0.18326,0,0,0.0272922,0,0
55.4317,-0.00161027,0,0,0.0670749,0,0,6.01046,0,0,-0.0271844,0,0,0.183101,0,0,0.0343956,0,0
55.5317,-0.00163919,0,0,0.0577972,0,0,6.02876,0,0,-0.0234243,0,0,0.182938,0,0,0.0406521,0,0
55.6317,-0.00166807,0,0,0.0470963,0,0,6.04704,0,0,-0.0190874,0,0,0.182773,0,0,0.0459076,0,0
55.7317,-0.00169691,0,0,0.0352358,0,0,6.06531,0,0,-0.0142805,0,0,0.182605,0,0,0.0500327,0,0
55.8317,-0.00172571,0,0,0.0225076,0,0,6.08356,0,0,-0.00912198,0,0,0.182433,0,0,0.0529258,0,0
55.9317,-0.00175446,0,0,0.00922519,0,0,6.1018,0,0,-0.00373883,0,0,0.182259,0,0,0.0545157,0,0
56.0317,-0.00178317,0,0,-0.00428435,0,0,6.12002,0,0,0.00173638,0,0,0.182083,0,0,0.0547633,0,0
56.1317,-0.00181184,0,0,-0.0176884,0,0,6.13822,0,0,0.00716884,0,0,0.181903,0,0,0.0536624,0,0
56.2317,-0.00184046,0,0,-0.0306569,0,0,6.1564,0,0,0.0124248,0,0,0.18172,0,0,0.0512401,0,0
56.3317,-0.00186904,0,0,-0.0428705,0,0,6.17456,0,0,0.0173748,0,0,0.181535,0,0,0.0475562,0,0
56.4317,-0.00189758,0,0,-0.0540285,0,0,6.1927,0,0,0.0218969,0,0,0.181346,0,0,0.0427012,0,0
56.5317,-0.00192607,0,0,-0.0638562,0,0,6.21083,0,0,0.0258799,0,0,0.181155,0,0,0.0367948,0,0
56.6317,-0.00195451,0,0,-0.0721115,0,0,6.22893,0,0,0.0292257,0,0,0.180961,0,0,0.0299824,0,0
56.7317,-0.0019829,0,0,-0.0785911,0,0,6.24702,0,0,0.0318518,0,0,0.180764,0,0,0.0224318,0,0
56.8317,-0.00201124,0,0,-0.0831356,0,0,6.26509,0,0,0.0336936,0,0,0.180565,0,0,0.0143288,0,0
56.9317,-0.00203954,0,0,-0.0856331,0,0,6.28313,0,0,0.0347058,0,0,0.180362,0,0,0.00587294,0,0
57.0317,-0.00206778,0,0,-0.0860219,0,0,6.30116,0,0,0.0348634,0,0,0.180157,0,0,-0.0027275,0,0
57.1317,-0.00209598,0,0,-0.0842926,0,0,6.31916,0,0,0.0341625,0,0,0.179948,0,0,-0.0112608,0,0
57.2317,-0.00212412,0,0,-0.0804878,0,0,6.33715,0,0,0.0326205,0,0,0.179737,0,0,-0.0195168,0,0
57.3317,-0.00215221,0,0,-0.074701,0,0,6.35511,0,0,0.0302752,0,0,0.179524,0,0,-0.0272922,0,0
57.4317,-0.00218025,0,0,-0.0670749,0,0,6.37305,0,0,0.0271844,0,0,0.179307,0,0,-0.0343956,0,0
57.5317,-0.00220823,0,0,-0.0577972,0,0,6.39097,0,0,0.0234243,0,0,0.179088,0,0,-0.0406521,0,0
57.6317,-0.00223617,0,0,-0.0470963,0,0,6.40887,0,0,0.0190874,0,0,0.178865,0,0,-0.0459076,0,0
57.7317,-0.00226404,0,0,-0.0352358,0,0,6.42675,0,0,0.0142805,0,0,0.17864,0,0,-0.0500327,0,0
57.8317,-0.00229186,0,0,-0.0225076,0,0,6.4446,0,0,0.00912198,0,0,0.178413,0,0,-0.0529258,0,0
57.9317,-0.00231962,0,0,-0.00922519,0,0,6.46243,0,0,0.00373883,0,0,0.178182,0,0,-0.0545157,0,0
58.0317,-0.00234733,0,0,0.00428435,0,0,6.48024,0,0,-0.00173638,0,0,0.177949,0,0,-0.0547633,0,0
58.1317,-0.00237498,0,0,0.0176884,0,0,6.49802,0,0,-0.00716884,0,0,0.177713,0,0,-0.0536624,0,0
58.2317,-0.00240257,0,0,0.0306569,0,0,6.51578,0,0,-0.0124248,0,0,0.177474,0,0,-0.0512401,0,0
58.3317,-0.0024301,0,0,0.0428705,0,0,6.53351,0,0,-0.0173748,0,0,0.177232,0,0,-0.0475562,0,0
58.4317,-0.00245757,0,0,0.0540285,0,0,6.55122,0,0,-0.0218969,0,0,0.176988,0,0,-0.0427012,0,0
58.5317,-0.00248498,0,0,0.0638562,0,0,6.56891,0,0,-0.0258799,0,0,0.176741,0,0,-0.0367948,0,0
58.6317,-0.00251233,0,0,0.0721115,0,0,6.58657,0,0,-0.0292257,0,0,0.176491,0,0,-0.0299824,0,0
58.7317,-0.00253962,0,0,0.0785911,0,0,6.60421,0,0,-0.0318518,0,0,0.176238,0,0,-0.0224318,0,0
58.8317,-0.00256684,0,0,0.0831356,0,0,6.62182,0,0,-0.0336936,0,0,0.175983,0,0,-0.0143288,0,0
58.9317,-0.002594,0,0,0.0856331,0,0,6.6394,0,0,-0.0347058,0,0,0.175725,0,0,-0.00587294,0,0
59.0317,-0.0026211,0,0,0.0860219,0,0,6.65696,0,0,-0.0348634,0,0,0.175464,0,0,0.0027275,0,0
59.1317,-0.00264813,0,0,0.0842926,0,0,6.6745,0,0,-0.0341625,0,0,0.1752,0,0,0.0112608,0,0
59.2317,-0.00267509,0,0,0.0804878,0,0,6.692,0,0,-0.0326205,0,0,0.174934,0,0,0.0195168,0,0
59.3317,-0.00270199,0,0,0.074701,0,0,6.70948,0,0,-0.0302752,0,0,0.174665,0,0,0.0272922,0,0
59.4317,-0.00272882,0,0,0.0670749,0,0,6.72694,0,0,-0.0271844,0,0,0.174394,0,0,0.0343956,0,0
59.5317,-0.00275559,0,0,0.0577972,0,0,6.74436,0,0,-0.0234243,0,0,0.17412,0,0,0.0406521,0,0
59.6317,-0.00278228,0,0,0.0470963,0,0,6.76176,0,0,-0.0190874,0,0,0.173843,0,0,0.0459076,0,0
59.7317,-0.00280891,0,0,0.0352358,0,0,6.77913,0,0,-0.0142805,0,0,0.173563,0,0,0.0500327,0,0
59.8317,-0.00283546,0,0,0.0225076,0,0,6.79647,0,0,-0.00912198,0,0,0.173281,0,0,0.0529258,0,0
59.9317,-0.00286195,0,0,0.00922519,0,0,6.81379,0,0,-0.00373883,0,0,0.172996,0,0,0.0545157,0,0
60.0317,-0.00288836,0,0,-0.00428435,0,0,6.83107,0,0,0.00173638,0,0,0.172709,0,0,0.0547633,0,0
60.1317,-0.0029147,0,0,-0.0176884,0,0,6.84833,0,0,0.00716884,0,0,0.172418,0,0,0.0536624,0,0
60.2317,-0.00294097,0,0,-0.0306569,0,0,6.86556,0,0,0.0124248,0,0,0.172126,0,0,0.0512401,0,0
60.3317,-0.00296716,0,0,-0.0428705,0,0,6.88275,0,0,0.0173748,0,0,0.17183,0,0,0.0475562,0,0
60.4317,-0.00299328,0,0,-0.0540285,0,0,6.89992,0,0,0.0218969,0,0,0.171532,0,0,0.0427012,0,0
60.5317,-0.00301933,0,0,-0.0638562,0,0,6.91706,0,0,0.0258799,0,0,0.171232,0,0,0.0367948,0,0
60.6317,-0.0030453,0,0,-0.0721115,0,0,6.93417,0,0,0.0292257,0,0,0.170928,0,0,0.0299824,0,0
60.7317,-0.00307119,0,0,-0.0785911,0,0,6.95125,0,0,0.0318518,0,0,0.170623,0,0,0.0224318,0,0
60.8317,-0.003097,0,0,-0.0831356,0,0,6.96829,0,0,0.0336936,0,0,0.170314,0,0,0.0143288,0,0
60.9317,-0.00312274,0,0,-0.0856331,0,0,6.98531,0,0,0.0347058,0,0,0.170003,0,0,0.00587294,0,0
61.0317,-0.0031484,0,0,-0.0860219,0,0,7.00229,0,0,0.0348634,0,0,0.16969,0,0,-0.0027275,0,0
61.1317,-0.00317398,0,0,-0.0842926,0,0,7.01925,0,0,0.0341625,0,0,0.169373,0,0,-0.0112608,0,0
61.2317,-0.00319948,0,0,-0.0804878,0,0,7.03617,0,0,0.0326205,0,0,0.169055,0,0,-0.0195168,0,0
61.3317,-0.0032249,0,0,-0.074701,0,0,7.05306,0,0,0.0302752,0,0,0.168734,0,0,-0.0272922,0,0
61.4317,-0.00325023,0,0,-0.0670749,0,0,7.06991,0,0,0.0271844,0,0,0.16841,0,0,-0.0343956,0,0
61.5317,-0.00327549,0,0,-0.0577972,0,0,7.08674,0,0,0.0234243,0,0,0.168084,0,0,-0.0406521,0,0
61.6317,-0.00330066,0,0,-0.0470963,0,0,7.10353,0,0,0.0190874,0,0,0.167755,0,0,-0.0459076,0,0
61.7317,-0.00332575,0,0,-0.0352358,0,0,7.12029,0,0,0.0142805,0,0,0.167423,0,0,-0.0500327,0,0
61.8317,-0.00335075,0,0,-0.0225076,0,0,7.13702,0,0,0.00912198,0,0,0.16709,0,0,-0.0529258,0,0
61.9317,-0.00337567,0,0,-0.00922519,0,0,7.15371,0,0,0.00373883,0,0,0.166753,0,0,-0.0545157,0,0
62.0317,-0.0034005,0,0,0.00428435,0,0,7.17037,0,0,-0.00173638,0,0,0.166414,0,0,-0.0547633,0,0
62.1317,-0.00342524,0,0,0.0176884,0,0,7.18699,0,0,-0.00716884,0,0,0.166073,0,0,-0.0536624,0,0
62.2317,-0.0034499,0,0,0.0306569,0,0,7.20358,0,0,-0.0124248,0,0,0.165729,0,0,-0.0512401,0,0
62.3317,-0.00347447,0,0,0.0428705,0,0,7.22014,0,0,-0.0173748,0,0,0.165383,0,0,-0.0475562,0,0
62.4317,-0.00349895,0,0,0.0540285,0,0,7.23666,0,0,-0.0218969,0,0,0.165035,0,0,-0.0427012,0,0
62.5317,-0.00352334,0,0,0.0638562,0,0,7.25314,0,0,-0.0258799,0,0,0.164683,0,0,-0.0367948,0,0
62.6317,-0.00354764,0,0,0.0721115,0,0,7.26959,0,0,-0.0292257,0,0,0.16433,0,0,-0.0299824,0,0
62.7317,-0.00357185,0,0,0.0785911,0,0,7.28601,0,0,-0.0318518,0,0,0.163974,0,0,-0.0224318,0,0
62.8317,-0.00359597,0,0,0.0831356,0,0,7.30239,0,0,-0.0336936,0,0,0.163616,0,0,-0.0143288,0,0
62.9317,-0.00362,0,0,0.0856331,0,0,7.31873,0,0,-0.0347058,0,0,0.163255,0,0,-0.00587294,0,0
63.0317,-0.00364393,0,0,0.0860219,0,0,7.33504,0,0,-0.0348634,0,0,0.162892,0,0,0.0027275,0,0
63.1317,-0.00366777,0,0,0.0842926,0,0,7.35131,0,0,-0.0341625,0,0,0.162526,0,0,0.0112608,0,0
63.2317,-0.00369152,0,0,0.0804878,0,0,7.36755,0,0,-0.0326205,0,0,0.162158,0,0,0.0195168,0,0
63.3317,-0.00371517,0,0,0.074701,0,0,7.38374,0,0,-0.0302752,0,0,0.161788,0,0,0.0272922,0,0
63.4317,-0.00373872,0,0,0.0670749,0,0,7.3999,0,0,-0.0271844,0,0,0.161415,0,0,0.0343956,0,0
63.5317,-0.00376218,0,0,0.0577972,0,0,7.41603,0,0,-0.0234243,0,0,0.16104,0,0,0.0406521,0,0
63.6317,-0.00378554,0,0,0.0470963,0,0,7.43211,0,0,-0.0190874,0,0,0.160662,0,0,0.0459076,0,0
63.7317,-0.0038088,0,0,0.0352358,0,0,7.44816,0,0,-0.0142805,0,0,0.160283,0,0,0.0500327,0,0
63.8317,-0.00383196,0,0,0.0225076,0,0,7.46417,0,0,-0.00912198,0,0,0.159901,0,0,0.0529258,0,0
63.9317,-0.00385502,0,0,0.00922519,0,0,7.48014,0,0,-0.00373883,0,0,0.159516,0,0,0.0545157,0,0
64.0317,-0.00387798,0,0,-0.00428435,0,0,7.49607,0,0,0.00173638,0,0,0.15913,0,0,0.0547633,0,0
64.1317,-0.00390085,0,0,-0.0176884,0,0,7.51196,0,0,0.00716884,0,0,0.158741,0,0,0.0536624,0,0
64.2317,-0.0039236,0,0,-0.0306569,0,0,7.52782,0,0,0.0124248,0,0,0.15835,0,0,0.0512401,0,0
64.3317,-0.00394626,0,0,-0.0428705,0,0,7.54363,0,0,0.0173748,0,0,0.157956,0,0,0.0475562,0,0
64.4317,-0.00396882,0,0,-0.0540285,0,0,7.55941,0,0,0.0218969,0,0,0.15756,0,0,0.0427012,0,0
64.5317,-0.00399127,0,0,-0.0638562,0,0,7.57515,0,0,0.0258799,0,0,0.157162,0,0,0.0367948,0,0
64.6317,-0.00401361,0,0,-0.0721115,0,0,7.59084,0,0,0.0292257,0,0,0.156762,0,0,0.0299824,0,0
64.7317,-0.00403585,0,0,-0.0785911,0,0,7.6065,0,0,0.0318518,0,0,0.15636,0,0,0.0224318,0,0
64.8317,-0.00405799,0,0,-0.0831356,0,0,7.62211,0,0,0.0336936,0,0,0.155955,0,0,0.0143288,0,0
64.9317,-0.00408001,0,0,-0.0856331,0,0,7.63769,0,0,0.0347058,0,0,0.155548,0,0,0.00587294,0,0
65.0317,-0.00410193,0,0,-0.0860219,0,0,7.65322,0,0,0.0348634,0,0,0.155139,0,0,-0.0027275,0,0
65.1317,-0.00412374,0,0,-0.0842926,0,0,7.66872,0,0,0.0341625,0,0,0.154728,0,0,-0.0112608,0,0
65.2317,-0.00414545,0,0,-0.0804878,0,0,7.68417,0,0,0.0326205,0,0,0.154314,0,0,-0.0195168,0,0
65.3317,-0.00416704,0,0,-0.074701,0,0,7.69958,0,0,0.0302752,0,0,0.153899,0,0,-0.0272922,0,0
65.4317,-0.00418852,0,0,-0.0670749,0,0,7.71495,0,0,0.0271844,0,0,0.153481,0,0,-0.0343956,0,0
65.5317,-0.00420989,0,0,-0.0577972,0,0,7.73028,0,0,0.0234243,0,0,0.153061,0,0,-0.0406521,0,0
65.6317,-0.00423115,0,0,-0.0470963,0,0,7.74556,0,0,0.0190874,0,0,0.152639,0,0,-0.0459076,0,0
65.7317,-0.0042523,0,0,-0.0352358,0,0,7.7608,0,0,0.0142805,0,0,0.152215,0,0,-0.0500327,0,0
65.8317,-0.00427333,0,0,-0.0225076,0,0,7.776,0,0,0.00912198,0,0,0.151788,0,0,-0.0529258,0,0
65.9317,-0.00429425,0,0,-0.00922519,0,0,7.79116,0,0,0.00373883,0,0,0.15136,0,0,-0.0545157,0,0
66.0317,-0.00431506,0,0,0.00428435,0,0,7.80628,0,0,-0.00173638,0,0,0.150929,0,0,-0.0547633,0,0
66.1317,-0.00433575,0,0,0.0176884,0,0,7.82135,0,0,-0.00716884,0,0,0.150497,0,0,-0.0536624,0,0
66.2317,-0.00435632,0,0,0.0306569,0,0,7.83637,0,0,-0.0124248,0,0,0.150062,0,0,-0.0512401,0,0
66.3317,-0.00437678,0,0,0.0428705,0,0,7.85136,0,0,-0.0173748,0,0,0.149626,0,0,-0.0475562,0,0
66.4317,-0.00439712,0,0,0.0540285,0,0,7.8663,0,0,-0.0218969,0,0,0.149187,0,0,-0.0427012,0,0
66.5317,-0.00441734,0,0,0.0638562,0,0,7.8812,0,0,-0.0258799,0,0,0.148746,0,0,-0.0367948,0,0
66.6317,-0.00443744,0,0,0.0721115,0,0,7.89605,0,0,-0.0292257,0,0,0.148304,0,0,-0.0299824,0,0
66.7317,-0.00445742,0,0,0.0785911,0,0,7.91086,0,0,-0.0318518,0,0,0.147859,0,0,-0.0224318,0,0
66.8317,-0.00447728,0,0,0.0831356,0,0,7.92562,0,0,-0.0336936,0,0,0.147412,0,0,-0.0143288,0,0
66.9317,-0.00449702,0,0,0.0856331,0,0,7.94034,0,0,-0.0347058,0,0,0.146963,0,0,-0.00587294,0,0
67.0317,-0.00451664,0,0,0.0860219,0,0,7.95501,0,0,-0.0348634,0,0,0.146513,0,0,0.0027275,0,0
67.1317,-0.00453614,0,0,0.0842926,0,0,7.96964,0,0,-0.0341625,0,0,0.14606,0,0,0.0112608,0,0
67.2317,-0.00455551,0,0,0.0804878,0,0,7.98422,0,0,-0.0326205,0,0,0.145605,0,0,0.0195168,0,0
67.3317,-0.00457476,0,0,0.074701,0,0,7.99876,0,0,-0.0302752,0,0,0.145149,0,0,0.0272922,0,0
67.4317,-0.00459388,0,0,0.0670749,0,0,8.01326,0,0,-0.0271844,0,0,0.14469,0,0,0.0343956,0,0
67.5317,-0.00461288,0,0,0.0577972,0,0,8.0277,0,0,-0.0234243,0,0,0.14423,0,0,0.0406521,0,0
67.6317,-0.00463175,0,0,0.0470963,0,0,8.0421,0,0,-0.0190874,0,0,0.143768,0,0,0.0459076,0,0
67.7317,-0.0046505,0,0,0.0352358,0,0,8.05645,0,0,-0.0142805,0,0,0.143304,0,0,0.0500327,0,0
67.8317,-0.00466911,0,0,0.0225076,0,0,8.07076,0,0,-0.00912198,0,0,0.142838,0,0,0.0529258,0,0
67.9317,-0.0046876,0,0,0.00922519,0,0,8.08502,0,0,-0.00373883,0,0,0.14237,0,0,0.0545157,0,0
68.0317,-0.00470596,0,0,-0.00428435,0,0,8.09924,0,0,0.00173638,0,0,0.1419,0,0,0.0547633,0,0
68.1317,-0.00472419,0,0,-0.0176884,0,0,8.1134,0,0,0.00716884,0,0,0.141429,0,0,0.0536624,0,0
68.2317,-0.00474229,0,0,-0.0306569,0,0,8.12752,0,0,0.0124248,0,0,0.140955,0,0,0.0512401,0,0
68.3317,-0.00476026,0,0,-0.0428705,0,0,8.14159,0,0,0.0173748,0,0,0.14048,0,0,0.0475562,0,0
68.4317,-0.0047781,0,0,-0.0540285,0,0,8.15562,0,0,0.0218969,0,0,0.140003,0,0,0.0427012,0,0
68.5317,-0.0047958,0,0,-0.0638562,0,0,8.16959,0,0,0.0258799,0,0,0.139525,0,0,0.0367948,0,0
68.6317,-0.00481337,0,0,-0.0721115,0,0,8.18352,0,0,0.0292257,0,0,0.139044,0,0,0.0299824,0,0
68.7317,-0.0048308,0,0,-0.0785911,0,0,8.1974,0,0,0.0318518,0,0,0.138562,0,0,0.0224318,0,0
68.8317,-0.00484811,0,0,-0.0831356,0,0,8.21123,0,0,0.0336936,0,0,0.138078,0,0,0.0143288,0,0
68.9317,-0.00486527,0,0,-0.0856331,0,0,8.22502,0,0,0.0347058,0,0,0.137592,0,0,0.00587294,0,0
69.0317,-0.0048823,0,0,-0.0860219,0,0,8.23875,0,0,0.0348634,0,0,0.137105,0,0,-0.0027275,0,0
69.1317,-0.00489919,0,0,-0.0842926,0,0,8.25244,0,0,0.0341625,0,0,0.136616,0,0,-0.0112608,0,0
69.2317,-0.00491595,0,0,-0.0804878,0,0,8.26608,0,0,0.0326205,0,0,0.136125,0,0,-0.0195168,0,0
69.3317,-0.00493256,0,0,-0.074701,0,0,8.27966,0,0,0.0302752,0,0,0.135633,0,0,-0.0272922,0,0
69.4317,-0.00494904,0,0,-0.0670749,0,0,8.2932,0,0,0.0271844,0,0,0.135139,0,0,-0.0343956,0,0
69.5317,-0.00496538,0,0,-0.0577972,0,0,8.30669,0,0,0.0234243,0,0,0.134643,0,0,-0.0406521,0,0
69.6317,-0.00498157,0,0,-0.0470963,0,0,8.32013,0,0,0.0190874,0,0,0.134146,0,0,-0.0459076,0,0
69.7317,-0.00499763,0,0,-0.0352358,0,0,8.33352,0,0,0.0142805,0,0,0.133647,0,0,-0.0500327,0,0
69.8317,-0.00501354,0,0,-0.0225076,0,0,8.34686,0,0,0.00912198,0,0,0.133146,0,0,-0.0529258,0,0
69.9317,-0.00502931,0,0,-0.00922519,0,0,8.36015,0,0,0.00373883,0,0,0.132644,0,0,-0.0545157,0,0
70.0317,-0.00504493,0,0,0.00428435,0,0,8.37339,0,0,-0.00173638,0,0,0.13214,0,0,-0.0547633,0,0
70.1317,-0.00506042,0,0,0.0176884,0,0,8.38658,0,0,-0.00716884,0,0,0.131635,0,0,-0.0536624,0,0
70.2317,-0.00507575,0,0,0.0306569,0,0,8.39972,0,0,-0.0124248,0,0,0.131128,0,0,-0.0512401,0,0
70.3317,-0.00509095,0,0,0.0428705,0,0,8.4128,0,0,-0.0173748,0,0,0.13062,0,0,-0.0475562,0,0
70.4317,-0.00510599,0,0,0.0540285,0,0,8.42584,0,0,-0.0218969,0,0,0.13011,0,0,-0.0427012,0,0
70.5317,-0.00512089,0,0,0.0638562,0,0,8.43883,0,0,-0.0258799,0,0,0.129599,0,0,-0.0367948,0,0
70.6317,-0.00513564,0,0,0.0721115,0,0,8.45176,0,0,-0.0292257,0,0,0.129086,0,0,-0.0299824,0,0
70.7317,-0.00515024,0,0,0.0785911,0,0,8.46464,0,0,-0.0318518,0,0,0.128572,0,0,-0.0224318,0,0
70.8317,-0.00516469,0,0,0.0831356,0,0,8.47747,0,0,-0.0336936,0,0,0.128056,0,0,-0.0143288,0,0
70.9317,-0.005179,0,0,0.0856331,0,0,8.49025,0,0,-0.0347058,0,0,0.127539,0,0,-0.00587294,0,0
71.0317,-0.00519315,0,0,0.0860219,0,0,8.50298,0,0,-0.0348634,0,0,0.12702,0,0,0.0027275,0,0
71.1317,-0.00520715,0,0,0.0842926,0,0,8.51566,0,0,-0.0341625,0,0,0.1265,0,0,0.0112608,0,0
71.2317,-0.005221,0,0,0.0804878,0,0,8.52828,0,0,-0.0326205,0,0,0.125979,0,0,0.0195168,0,0
71.3317,-0.00523469,0,0,0.074701,0,0,8.54085,0,0,-0.0302752,0,0,0.125456,0,0,0.0272922,0,0
71.4317,-0.00524823,0,0,0.0670749,0,0,8.55337,0,0,-0.0271844,0,0,0.124932,0,0,0.0343956,0,0
71.5317,-0.00526162,0,0,0.0577972,0,0,8.56584,0,0,-0.0234243,0,0,0.124406,0,0,0.0406521,0,0
71.6317,-0.00527485,0,0,0.0470963,0,0,8.57825,0,0,-0.0190874,0,0,0.123879,0,0,0.0459076,0,0
71.7317,-0.00528793,0,0,0.0352358,0,0,8.59062,0,0,-0.0142805,0,0,0.123351,0,0,0.0500327,0,0
71.8317,-0.00530085,0,0,0.0225076,0,0,8.60292,0,0,-0.00912198,0,0,0.122822,0,0,0.0529258,0,0
71.9317,-0.00531361,0,0,0.00922519,0,0,8.61518,0,0,-0.00373883,0,0,0.122291,0,0,0.0545157,0,0
72.0317,-0.00532622,0,0,-0.00428435,0,0,8.62738,0,0,0.00173638,0,0,0.121759,0,0,0.0547633,0,0
72.1317,-0.00533866,0,0,-0.0176884,0,0,8.63953,0,0,0.00716884,0,0,0.121226,0,0,0.0536624,0,0
72.2317,-0.00535095,0,0,-0.0306569,0,0,8.65163,0,0,0.0124248,0,0,0.120691,0,0,0.0512401,0,0
72.3317,-0.00536308,0,0,-0.0428705,0,0,8.66367,0,0,0.0173748,0,0,0.120156,0,0,0.0475562,0,0
72.4317,-0.00537504,0,0,-0.0540285,0,0,8.67566,0,0,0.0218969,0,0,0.119619,0,0,0.0427012,0,0
72.5317,-0.00538685,0,0,-0.0638562,0,0,8.68759,0,0,0.0258799,0,0,0.119081,0,0,0.0367948,0,0
72.6317,-0.00539849,0,0,-0.0721115,0,0,8.69947,0,0,0.0292257,0,0,0.118541,0,0,0.0299824,0,0
72.7317,-0.00540997,0,0,-0.0785911,0,0,8.7113,0,0,0.0318518,0,0,0.118001,0,0,0.0224318,0,0
72.8317,-0.00542129,0,0,-0.0831356,0,0,8.72307,0,0,0.0336936,0,0,0.117459,0,0,0.0143288,0,0
72.9317,-0.00543244,0,0,-0.0856331,0,0,8.73479,0,0,0.0347058,0,0,0.116917,0,0,0.00587294,0,0
73.0317,-0.00544342,0,0,-0.0860219,0,0,8.74646,0,0,0.0348634,0,0,0.116373,0,0,-0.0027275,0,0
73.1317,-0.00545424,0,0,-0.0842926,0,0,8.75807,0,0,0.0341625,0,0,0.115828,0,0,-0.0112608,0,0
73.2317,-0.0054649,0,0,-0.0804878,0,0,8.76962,0,0,0.0326205,0,0,0.115282,0,0,-0.0195168,0,0
73.3317,-0.00547538,0,0,-0.074701,0,0,8.78112,0,0,0.0302752,0,0,0.114735,0,0,-0.0272922,0,0
73.4317,-0.0054857,0,0,-0.0670749,0,0,8.79257,0,0,0.0271844,0,0,0.114187,0,0,-0.0343956,0,0
73.5317,-0.00549585,0,0,-0.0577972,0,0,8.80396,0,0,0.0234243,0,0,0.113638,0,0,-0.0406521,0,0
73.6317,-0.00550583,0,0,-0.0470963,0,0,8.8153,0,0,0.0190874,0,0,0.113088,0,0,-0.0459076,0,0
73.7317,-0.00551564,0,0,-0.0352358,0,0,8.82658,0,0,0.0142805,0,0,0.112537,0,0,-0.0500327,0,0
73.8317,-0.00552528,0,0,-0.0225076,0,0,8.8378,0,0,0.00912198,0,0,0.111985,0,0,-0.0529258,0,0
73.9317,-0.00553475,0,0,-0.00922519,0,0,8.84898,0,0,0.00373883,0,0,0.111432,0,0,-0.0545157,0,0
74.0317,-0.00554405,0,0,0.00428435,0,0,8.86009,0,0,-0.00173638,0,0,0.110878,0,0,-0.0547633,0,0
74.1317,-0.00555317,0,0,0.0176884,0,0,8.87115,0,0,-0.00716884,0,0,0.110323,0,0,-0.0536624,0,0
74.2317,-0.00556212,0,0,0.0306569,0,0,8.88216,0,0,-0.0124248,0,0,0.109767,0,0,-0.0512401,0,0
74.3317,-0.00557089,0,0,0.0428705,0,0,8.8931,0,0,-0.0173748,0,0,0.10921,0,0,-0.0475562,0,0
74.4317,-0.00557949,0,0,0.0540285,0,0,8.904,0,0,-0.0218969,0,0,0.108653,0,0,-0.0427012,0,0
74.5317,-0.00558791,0,0,0.0638562,0,0,8.91483,0,0,-0.0258799,0,0,0.108095,0,0,-0.0367948,0,0
74.6317,-0.00559616,0,0,0.0721115,0,0,8.92562,0,0,-0.0292257,0,0,0.107535,0,0,-0.0299824,0,0
74.7317,-0.00560423,0,0,0.0785911,0,0,8.93634,0,0,-0.0318518,0,0,0.106975,0,0,-0.0224318,0,0
74.8317,-0.00561212,0,0,0.0831356,0,0,8.94701,0,0,-0.0336936,0,0,0.106414,0,0,-0.0143288,0,0
74.9317,-0.00561983,0,0,0.0856331,0,0,8.95763,0,0,-0.0347058,0,0,0.105853,0,0,-0.00587294,0,0
75.0317,-0.00562737,0,0,0.0860219,0,0,8.96818,0,0,-0.0348634,0,0,0.105291,0,0,0.0027275,0,0
75.1317,-0.00563472,0,0,0.0842926,0,0,8.97868,0,0,-0.0341625,0,0,0.104727,0,0,0.0112608,0,0
75.2317,-0.00564189,0,0,0.0804878,0,0,8.98913,0,0,-0.0326205,0,0,0.104164,0,0,0.0195168,0,0
75.3317,-0.00564888,0,0,0.074701,0,0,8.99952,0,0,-0.0302752,0,0,0.103599,0,0,0.0272922,0,0
75.4317,-0.00565569,0,0,0.0670749,0,0,9.00985,0,0,-0.0271844,0,0,0.103034,0,0,0.0343956,0,0
75.5317,-0.00566231,0,0,0.0577972,0,0,9.02012,0,0,-0.0234243,0,0,0.102468,0,0,0.0406521,0,0
75.6317,-0.00566875,0,0,0.0470963,0,0,9.03034,0,0,-0.0190874,0,0,0.101901,0,0,0.0459076,0,0
75.7317,-0.00567501,0,0,0.0352358,0,0,9.0405,0,0,-0.0142805,0,0,0.101334,0,0,0.0500327,0,0
75.8317,-0.00568108,0,0,0.0225076,0,0,9.05061,0,0,-0.00912198,0,0,0.100766,0,0,0.0529258,0,0
75.9317,-0.00568697,0,0,0.00922519,0,0,9.06066,0,0,-0.00373883,0,0,0.100198,0,0,0.0545157,0,0
76.0317,-0.00569266,0,0,-0.00428435,0,0,9.07065,0,0,0.00173638,0,0,0.099629,0,0,0.0547633,0,0
76.1317,-0.00569818,0,0,-0.0176884,0,0,9.08058,0,0,0.00716884,0,0,0.0990594,0,0,0.0536624,0,0
76.2317,-0.0057035,0,0,-0.0306569,0,0,9.09046,0,0,0.0124248,0,0,0.0984893,0,0,0.0512401,0,0
76.3317,-0.00570863,0,0,-0.0428705,0,0,9.10028,0,0,0.0173748,0,0,0.0979187,0,0,0.0475562,0,0
76.4317,-0.00571358,0,0,-0.0540285,0,0,9.11004,0,0,0.0218969,0,0,0.0973476,0,0,0.0427012,0,0
76.5317,-0.00571833,0,0,-0.0638562,0,0,9.11975,0,0,0.0258799,0,0,0.096776,0,0,0.0367948,0,0
76.6317,-0.00572289,0,0,-0.0721115,0,0,9.1294,0,0,0.0292257,0,0,0.096204,0,0,0.0299824,0,0
76.7317,-0.00572726,0,0,-0.0785911,0,0,9.13899,0,0,0.0318518,0,0,0.0956314,0,0,0.0224318,0,0
76.8317,-0.00573144,0,0,-0.0831356,0,0,9.14852,0,0,0.0336936,0,0,0.0950585,0,0,0.0143288,0,0
76.9317,-0.00573543,0,0,-0.0856331,0,0,9.158,0,0,0.0347058,0,0,0.0944852,0,0,0.00587294,0,0
77.0317,-0.00573922,0,0,-0.0860219,0,0,9.16742,0,0,0.0348634,0,0,0.0939114,0,0,-0.0027275,0,0
77.1317,-0.00574282,0,0,-0.0842926,0,0,9.17678,0,0,0.0341625,0,0,0.0933373,0,0,-0.0112608,0,0
77.2317,-0.00574622,0,0,-0.0804878,0,0,9.18609,0,0,0.0326205,0,0,0.0927629,0,0,-0.0195168,0,0
77.3317,-0.00574942,0,0,-0.074701,0,0,9.19534,0,0,0.0302752,0,0,0.0921881,0,0,-0.0272922,0,0
77.4317,-0.00575243,0,0,-0.0670749,0,0,9.20453,0,0,0.0271844,0,0,0.091613,0,0,-0.0343956,0,0
77.5317,-0.00575524,0,0,-0.0577972,0,0,9.21366,0,0,0.0234243,0,0,0.0910376,0,0,-0.0406521,0,0
77.6317,-0.00575786,0,0,-0.0470963,0,0,9.22273,0,0,0.0190874,0,0,0.0904619,0,0,-0.0459076,0,0
77.7317,-0.00576027,0,0,-0.0352358,0,0,9.23175,0,0,0.0142805,0,0,0.089886,0,0,-0.0500327,0,0
77.8317,-0.00576249,0,0,-0.0225076,0,0,9.24071,0,0,0.00912198,0,0,0.0893099,0,0,-0.0529258,0,0
77.9317,-0.0057645,0,0,-0.00922519,0,0,9.24961,0,0,0.00373883,0,0,0.0887335,0,0,-0.0545157,0,0
78.0317,-0.00576631,0,0,0.00428435,0,0,9.25846,0,0,-0.00173638,0,0,0.088157,0,0,-0.0547633,0,0
78.1317,-0.00576792,0,0,0.0176884,0,0,9.26725,0,0,-0.00716884,0,0,0.0875803,0,0,-0.0536624,0,0
78.2317,-0.00576933,0,0,0.0306569,0,0,9.27597,0,0,-0.0124248,0,0,0.0870034,0,0,-0.0512401,0,0
78.3317,-0.00577054,0,0,0.0428705,0,0,9.28465,0,0,-0.0173748,0,0,0.0864264,0,0,-0.0475562,0,0
78.4317,-0.00577154,0,0,0.0540285,0,0,9.29326,0,0,-0.0218969,0,0,0.0858493,0,0,-0.0427012,0,0
78.5317,-0.00577233,0,0,0.0638562,0,0,9.30182,0,0,-0.0258799,0,0,0.0852721,0,0,-0.0367948,0,0
78.6317,-0.00577293,0,0,0.0721115,0,0,9.31031,0,0,-0.0292257,0,0,0.0846949,0,0,-0.0299824,0,0
78.7317,-0.00577331,0,0,0.0785911,0,0,9.31875,0,0,-0.0318518,0,0,0.0841176,0,0,-0.0224318,0,0
78.8317,-0.00577349,0,0,0.0831356,0,0,9.32714,0,0,-0.0336936,0,0,0.0835402,0,0,-0.0143288,0,0
78.9317,-0.00577346,0,0,0.0856331,0,0,9.33546,0,0,-0.0347058,0,0,0.0829629,0,0,-0.00587294,0,0
79.0317,-0.00577322,0,0,0.0860219,0,0,9.34373,0,0,-0.0348634,0,0,0.0823855,0,0,0.0027275,0,0
79.1317,-0.00577278,0,0,0.0842926,0,0,9.35194,0,0,-0.0341625,0,0,0.0818082,0,0,0.0112608,0,0
79.2317,-0.00577212,0,0,0.0804878,0,0,9.36009,0,0,-0.0326205,0,0,0.081231,0,0,0.0195168,0,0
79.3317,-0.00577125,0,0,0.074701,0,0,9.36819,0,0,-0.0302752,0,0,0.0806538,0,0,0.0272922,0,0
79.4317,-0.00577017,0,0,0.0670749,0,0,9.37622,0,0,-0.0271844,0,0,0.0800767,0,0,0.0343956,0,0
79.5317,-0.00576888,0,0,0.0577972,0,0,9.3842,0,0,-0.0234243,0,0,0.0794998,0,0,0.0406521,0,0
79.6317,-0.00576738,0,0,0.0470963,0,0,9.39212,0,0,-0.0190874,0,0,0.078923,0,0,0.0459076,0,0
79.7317,-0.00576566,0,0,0.0352358,0,0,9.39999,0,0,-0.0142805,0,0,0.0783463,0,0,0.0500327,0,0
79.8317,-0.00576373,0,0,0.0225076,0,0,9.40779,0,0,-0.00912198,0,0,0.0777698,0,0,0.0529258,0,0
79.9317,-0.00576159,0,0,0.00922519,0,0,9.41554,0,0,-0.00373883,0,0,0.0771936,0,0,0.0545157,0,0
80.0317,-0.00575923,0,0,-0.00428435,0,0,9.42323,0,0,0.00173638,0,0,0.0766175,0,0,0.0547633,0,0
80.1317,-0.00575665,0,0,-0.0176884,0,0,9.43086,0,0,0.00716884,0,0,0.0760417,0,0,0.0536624,0,0
80.2317,-0.00575386,0,0,-0.0306569,0,0,9.43844,0,0,0.0124248,0,0,0.0754662,0,0,0.0512401,0,0
80.3317,-0.00575085,0,0,-0.0428705,0,0,9.44596,0,0,0.0173748,0,0,0.074891,0,0,0.0475562,0,0
80.4317,-0.00574762,0,0,-0.0540285,0,0,9.45342,0,0,0.0218969,0,0,0.074316,0,0,0.0427012,0,0
80.5317,-0.00574417,0,0,-0.0638562,0,0,9.46082,0,0,0.0258799,0,0,0.0737415,0,0,0.0367948,0,0
80.6317,-0.0057405,0,0,-0.0721115,0,0,9.46817,0,0,0.0292257,0,0,0.0731672,0,0,0.0299824,0,0
80.7317,-0.00573661,0,0,-0.0785911,0,0,9.47545,0,0,0.0318518,0,0,0.0725934,0,0,0.0224318,0,0
80.8317,-0.0057325,0,0,-0.0831356,0,0,9.48268,0,0,0.0336936,0,0,0.0720199,0,0,0.0143288,0,0
80.9317,-0.00572817,0,0,-0.0856331,0,0,9.48986,0,0,0.0347058,0,0,0.0714469,0,0,0.00587294,0,0
81.0317,-0.00572361,0,0,-0.0860219,0,0,9.49697,0,0,0.0348634,0,0,0.0708743,0,0,-0.0027275,0,0
81.1317,-0.00571883,0,0,-0.0842926,0,0,9.50403,0,0,0.0341625,0,0,0.0703022,0,0,-0.0112608,0,0
81.2317,-0.00571383,0,0,-0.0804878,0,0,9.51103,0,0,0.0326205,0,0,0.0697305,0,0,-0.0195168,0,0
81.3317,-0.0057086,0,0,-0.074701,0,0,9.51798,0,0,0.0302752,0,0,0.0691594,0,0,-0.0272922,0,0
81.4317,-0.00570315,0,0,-0.0670749,0,0,9.52487,0,0,0.0271844,0,0,0.0685888,0,0,-0.0343956,0,0
81.5317,-0.00569747,0,0,-0.0577972,0,0,9.5317,0,0,0.0234243,0,0,0.0680188,0,0,-0.0406521,0,0
81.6317,-0.00569156,0,0,-0.0470963,0,0,9.53847,0,0,0.0190874,0,0,0.0674493,0,0,-0.0459076,0,0
81.7317,-0.00568543,0,0,-0.0352358,0,0,9.54519,0,0,0.0142805,0,0,0.0668805,0,0,-0.0500327,0,0
81.8317,-0.00567907,0,0,-0.0225076,0,0,9.55185,0,0,0.00912198,0,0,0.0663122,0,0,-0.0529258,0,0
81.9317,-0.00567248,0,0,-0.00922519,0,0,9.55845,0,0,0.00373883,0,0,0.0657447,0,0,-0.0545157,0,0
82.0317,-0.00566565,0,0,0.00428435,0,0,9.56499,0,0,-0.00173638,0,0,0.0651778,0,0,-0.0547633,0,0
82.1317,-0.0056586,0,0,0.0176884,0,0,9.57148,0,0,-0.00716884,0,0,0.0646115,0,0,-0.0536624,0,0
82.2317,-0.00565132,0,0,0.0306569,0,0,9.57792,0,0,-0.0124248,0,0,0.064046,0,0,-0.0512401,0,0
82.3317,-0.0056438,0,0,0.0428705,0,0,9.58429,0,0,-0.0173748,0,0,0.0634813,0,0,-0.0475562,0,0
82.4317,-0.00563605,0,0,0.0540285,0,0,9.59061,0,0,-0.0218969,0,0,0.0629173,0,0,-0.0427012,0,0
82.5317,-0.00562807,0,0,0.0638562,0,0,9.59688,0,0,-0.0258799,0,0,0.0623541,0,0,-0.0367948,0,0
82.6317,-0.00561985,0,0,0.0721115,0,0,9.60308,0,0,-0.0292257,0,0,0.0617917,0,0,-0.0299824,0,0
82.7317,-0.0056114,0,0,0.0785911,0,0,9.60923,0,0,-0.0318518,0,0,0.0612301,0,0,-0.0224318,0,0
82.8317,-0.00560272,0,0,0.0831356,0,0,9.61533,0,0,-0.0336936,0,0,0.0606694,0,0,-0.0143288,0,0
82.9317,-0.00559379,0,0,0.0856331,0,0,9.62137,0,0,-0.0347058,0,0,0.0601096,0,0,-0.00587294,0,0
83.0317,-0.00558463,0,0,0.0860219,0,0,9.62735,0,0,-0.0348634,0,0,0.0595507,0,0,0.0027275,0,0
83.1317,-0.00557523,0,0,0.0842926,0,0,9.63328,0,0,-0.0341625,0,0,0.0589927,0,0,0.0112608,0,0
83.2317,-0.0055656,0,0,0.0804878,0,0,9.63915,0,0,-0.0326205,0,0,0.0584356,0,0,0.0195168,0,0
83.3317,-0.00555572,0,0,0.074701,0,0,9.64497,0,0,-0.0302752,0,0,0.0578796,0,0,0.0272922,0,0
83.4317,-0.0055456,0,0,0.0670749,0,0,9.65073,0,0,-0.0271844,0,0,0.0573245,0,0,0.0343956,0,0
83.5317,-0.00553525,0,0,0.0577972,0,0,9.65643,0,0,-0.0234243,0,0,0.0567704,0,0,0.0406521,0,0
83.6317,-0.00552465,0,0,0.0470963,0,0,9.66208,0,0,-0.0190874,0,0,0.0562174,0,0,0.0459076,0,0
83.7317,-0.00551381,0,0,0.0352358,0,0,9.66768,0,0,-0.0142805,0,0,0.0556655,0,0,0.0500327,0,0
83.8317,-0.00550273,0,0,0.0225076,0,0,9.67321,0,0,-0.00912198,0,0,0.0551147,0,0,0.0529258,0,0
83.9317,-0.0054914,0,0,0.00922519,0,0,9.6787,0,0,-0.00373883,0,0,0.054565,0,0,0.0545157,0,0
84.0317,-0.00547983,0,0,-0.00428435,0,0,9.68413,0,0,0.00173638,0,0,0.0540164,0,0,0.0547633,0,0
84.1317,-0.00546801,0,0,-0.0176884,0,0,9.6895,0,0,0.00716884,0,0,0.053469,0,0,0.0536624,0,0
84.2317,-0.00545595,0,0,-0.0306569,0,0,9.69482,0,0,0.0124248,0,0,0.0529228,0,0,0.0512401,0,0
84.3317,-0.00544364,0,0,-0.0428705,0,0,9.70009,0,0,0.0173748,0,0,0.0523778,0,0,0.0475562,0,0
84.4317,-0.00543109,0,0,-0.0540285,0,0,9.7053,0,0,0.0218969,0,0,0.0518341,0,0,0.0427012,0,0
84.5317,-0.00541828,0,0,-0.0638562,0,0,9.71045,0,0,0.0258799,0,0,0.0512916,0,0,0.0367948,0,0
84.6317,-0.00540523,0,0,-0.0721115,0,0,9.71555,0,0,0.0292257,0,0,0.0507505,0,0,0.0299824,0,0
84.7317,-0.00539193,0,0,-0.0785911,0,0,9.7206,0,0,0.0318518,0,0,0.0502106,0,0,0.0224318,0,0
84.8317,-0.00537838,0,0,-0.0831356,0,0,9.7256,0,0,0.0336936,0,0,0.0496721,0,0,0.0143288,0,0
84.9317,-0.00536457,0,0,-0.0856331,0,0,9.73054,0,0,0.0347058,0,0,0.0491349,0,0,0.00587294,0,0
85.0317,-0.00535052,0,0,-0.0860219,0,0,9.73542,0,0,0.0348634,0,0,0.0485992,0,0,-0.0027275,0,0
85.1317,-0.00533621,0,0,-0.0842926,0,0,9.74026,0,0,0.0341625,0,0,0.0480648,0,0,-0.0112608,0,0
85.2317,-0.00532165,0,0,-0.0804878,0,0,9.74504,0,0,0.0326205,0,0,0.0475319,0,0,-0.0195168,0,0
85.3317,-0.00530684,0,0,-0.074701,0,0,9.74976,0,0,0.0302752,0,0,0.0470005,0,0,-0.0272922,0,0
85.4317,-0.00529178,0,0,-0.0670749,0,0,9.75444,0,0,0.0271844,0,0,0.0464706,0,0,-0.0343956,0,0
85.5317,-0.00527645,0,0,-0.0577972,0,0,9.75906,0,0,0.0234243,0,0,0.0459422,0,0,-0.0406521,0,0
85.6317,-0.00526087,0,0,-0.0470963,0,0,9.76363,0,0,0.0190874,0,0,0.0454153,0,0,-0.0459076,0,0
85.7317,-0.00524504,0,0,-0.0352358,0,0,9.76814,0,0,0.0142805,0,0,0.04489,0,0,-0.0500327,0,0
85.8317,-0.00522895,0,0,-0.0225076,0,0,9.7726,0,0,0.00912198,0,0,0.0443663,0,0,-0.0529258,0,0
85.9317,-0.0052126,0,0,-0.00922519,0,0,9.77701,0,0,0.00373883,0,0,0.0438442,0,0,-0.0545157,0,0
86.0317,-0.00519599,0,0,0.00428435,0,0,9.78137,0,0,-0.00173638,0,0,0.0433238,0,0,-0.0547633,0,0
86.1317,-0.00517912,0,0,0.0176884,0,0,9.78568,0,0,-0.00716884,0,0,0.042805,0,0,-0.0536624,0,0
86.2317,-0.00516199,0,0,0.0306569,0,0,9.78993,0,0,-0.0124248,0,0,0.042288,0,0,-0.0512401,0,0
86.3317,-0.0051446,0,0,0.0428705,0,0,9.79414,0,0,-0.0173748,0,0,0.0417726,0,0,-0.0475562,0,0
86.4317,-0.00512695,0,0,0.0540285,0,0,9.79829,0,0,-0.0218969,0,0,0.0412591,0,0,-0.0427012,0,0
86.5317,-0.00510904,0,0,0.0638562,0,0,9.80239,0,0,-0.0258799,0,0,0.0407473,0,0,-0.0367948,0,0
86.6317,-0.00509087,0,0,0.0721115,0,0,9.80644,0,0,-0.0292257,0,0,0.0402373,0,0,-0.0299824,0,0
86.7317,-0.00507243,0,0,0.0785911,0,0,9.81044,0,0,-0.0318518,0,0,0.0397291,0,0,-0.0224318,0,0
86.8317,-0.00505372,0,0,0.0831356,0,0,9.81438,0,0,-0.0336936,0,0,0.0392228,0,0,-0.0143288,0,0
86.9317,-0.00503475,0,0,0.0856331,0,0,9.81828,0,0,-0.0347058,0,0,0.0387184,0,0,-0.00587294,0,0
87.0317,-0.00501552,0,0,0.0860219,0,0,9.82213,0,0,-0.0348634,0,0,0.0382158,0,0,0.0027275,0,0
87.1317,-0.00499602,0,0,0.0842926,0,0,9.82592,0,0,-0.0341625,0,0,0.0377153,0,0,0.0112608,0,0
87.2317,-0.00497625,0,0,0.0804878,0,0,9.82967,0,0,-0.0326205,0,0,0.0372166,0,0,0.0195168,0,0
87.3317,-0.00495621,0,0,0.074701,0,0,9.83337,0,0,-0.0302752,0,0,0.03672,0,0,0.0272922,0,0
87.4317,-0.0049359,0,0,0.0670749,0,0,9.83701,0,0,-0.0271844,0,0,0.0362254,0,0,0.0343956,0,0
87.5317,-0.00491533,0,0,0.0577972,0,0,9.84061,0,0,-0.0234243,0,0,0.0357328,0,0,0.0406521,0,0
87.6317,-0.00489448,0,0,0.0470963,0,0,9.84416,0,0,-0.0190874,0,0,0.0352424,0,0,0.0459076,0,0
87.7317,-0.00487336,0,0,0.0352358,0,0,9.84766,0,0,-0.0142805,0,0,0.034754,0,0,0.0500327,0,0
87.8317,-0.00485198,0,0,0.0225076,0,0,9.85111,0,0,-0.00912198,0,0,0.0342677,0,0,0.0529258,0,0
87.9317,-0.00483032,0,0,0.00922519,0,0,9.85451,0,0,-0.00373883,0,0,0.0337836,0,0,0.0545157,0,0
88.0317,-0.00480838,0,0,-0.00428435,0,0,9.85787,0,0,0.00173638,0,0,0.0333016,0,0,0.0547633,0,0
88.1317,-0.00478617,0,0,-0.0176884,0,0,9.86117,0,0,0.00716884,0,0,0.0328219,0,0,0.0536624,0,0
88.2317,-0.00476369,0,0,-0.0306569,0,0,9.86443,0,0,0.0124248,0,0,0.0323444,0,0,0.0512401,0,0
88.3317,-0.00474093,0,0,-0.0428705,0,0,9.86764,0,0,0.0173748,0,0,0.0318692,0,0,0.0475562,0,0
88.4317,-0.0047179,0,0,-0.0540285,0,0,9.87081,0,0,0.0218969,0,0,0.0313962,0,0,0.0427012,0,0
88.5317,-0.00469459,0,0,-0.0638562,0,0,9.87392,0,0,0.0258799,0,0,0.0309256,0,0,0.0367948,0,0
88.6317,-0.004671,0,0,-0.0721115,0,0,9.87699,0,0,0.0292257,0,0,0.0304573,0,0,0.0299824,0,0
88.7317,-0.00464714,0,0,-0.0785911,0,0,9.88001,0,0,0.0318518,0,0,0.0299914,0,0,0.0224318,0,0
88.8317,-0.00462299,0,0,-0.0831356,0,0,9.88299,0,0,0.0336936,0,0,0.0295279,0,0,0.0143288,0,0
88.9317,-0.00459857,0,0,-0.0856331,0,0,9.88592,0,0,0.0347058,0,0,0.0290668,0,0,0.00587294,0,0
89.0317,-0.00457386,0,0,-0.0860219,0,0,9.8888,0,0,0.0348634,0,0,0.0286082,0,0,-0.0027275,0,0
89.1317,-0.00454888,0,0,-0.0842926,0,0,9.89164,0,0,0.0341625,0,0,0.0281521,0,0,-0.0112608,0,0
89.2317,-0.00452361,0,0,-0.0804878,0,0,9.89443,0,0,0.0326205,0,0,0.0276984,0,0,-0.0195168,0,0
89.3317,-0.00449806,0,0,-0.074701,0,0,9.89718,0,0,0.0302752,0,0,0.0272473,0,0,-0.0272922,0,0
89.4317,-0.00447223,0,0,-0.0670749,0,0,9.89988,0,0,0.0271844,0,0,0.0267988,0,0,-0.0343956,0,0
89.5317,-0.00444611,0,0,-0.0577972,0,0,9.90254,0,0,0.0234243,0,0,0.0263529,0,0,-0.0406521,0,0
89.6317,-0.00441971,0,0,-0.0470963,0,0,9.90515,0,0,0.0190874,0,0,0.0259096,0,0,-0.0459076,0,0
89.7317,-0.00439302,0,0,-0.0352358,0,0,9.90772,0,0,0.0142805,0,0,0.025469,0,0,-0.0500327,0,0
89.8317,-0.00436605,0,0,-0.0225076,0,0,9.91025,0,0,0.00912198,0,0,0.025031,0,0,-0.0529258,0,0
89.9317,-0.00433879,0,0,-0.00922519,0,0,9.91273,0,0,0.00373883,0,0,0.0245958,0,0,-0.0545157,0,0
90.0317,-0.00431124,0,0,0.00428435,0,0,9.91517,0,0,-0.00173638,0,0,0.0241633,0,0,-0.0547633,0,0
90.1317,-0.00428341,0,0,0.0176884,0,0,9.91756,0,0,-0.00716884,0,0,0.0237335,0,0,-0.0536624,0,0
90.2317,-0.00425528,0,0,0.0306569,0,0,9.91991,0,0,-0.0124248,0,0,0.0233066,0,0,-0.0512401,0,0
90.3317,-0.00422687,0,0,0.0428705,0,0,9.92222,0,0,-0.0173748,0,0,0.0228825,0,0,-0.0475562,0,0
90.4317,-0.00419816,0,0,0.0540285,0,0,9.92449,0,0,-0.0218969,0,0,0.0224612,0,0,-0.0427012,0,0
90.5317,-0.00416917,0,0,0.0638562,0,0,9.92672,0,0,-0.0258799,0,0,0.0220429,0,0,-0.0367948,0,0
90.6317,-0.00413988,0,0,0.0721115,0,0,9.9289,0,0,-0.0292257,0,0,0.0216274,0,0,-0.0299824,0,0
90.7317,-0.0041103,0,0,0.0785911,0,0,9.93104,0,0,-0.0318518,0,0,0.0212149,0,0,-0.0224318,0,0
90.8317,-0.00408043,0,0,0.0831356,0,0,9.93314,0,0,-0.0336936,0,0,0.0208054,0,0,-0.0143288,0,0
90.9317,-0.00405026,0,0,0.0856331,0,0,9.9352,0,0,-0.0347058,0,0,0.0203988,0,0,-0.00587294,0,0
91.0317,-0.0040198,0,0,0.0860219,0,0,9.93722,0,0,-0.0348634,0,0,0.0199953,0,0,0.0027275,0,0
91.1317,-0.00398904,0,0,0.0842926,0,0,9.9392,0,0,-0.0341625,0,0,0.0195949,0,0,0.0112608,0,0
91.2317,-0.00395799,0,0,0.0804878,0,0,9.94114,0,0,-0.0326205,0,0,0.0191975,0,0,0.0195168,0,0
91.3317,-0.00392664,0,0,0.074701,0,0,9.94304,0,0,-0.0302752,0,0,0.0188033,0,0,0.0272922,0,0
91.4317,-0.00389499,0,0,0.0670749,0,0,9.9449,0,0,-0.0271844,0,0,0.0184122,0,0,0.0343956,0,0
91.5317,-0.00386304,0,0,0.0577972,0,0,9.94672,0,0,-0.0234243,0,0,0.0180243,0,0,0.0406521,0,0
91.6317,-0.0038308,0,0,0.0470963,0,0,9.94851,0,0,-0.0190874,0,0,0.0176396,0,0,0.0459076,0,0
91.7317,-0.00379825,0,0,0.0352358,0,0,9.95025,0,0,-0.0142805,0,0,0.0172582,0,0,0.0500327,0,0
91.8317,-0.00376541,0,0,0.0225076,0,0,9.95196,0,0,-0.00912198,0,0,0.01688,0,0,0.0529258,0,0
91.9317,-0.00373226,0,0,0.00922519,0,0,9.95363,0,0,-0.00373883,0,0,0.0165051,0,0,0.0545157,0,0
92.0317,-0.00369881,0,0,-0.00428435,0,0,9.95526,0,0,0.00173638,0,0,0.0161335,0,0,0.0547633,0,0
92.1317,-0.00366506,0,0,-0.0176884,0,0,9.95685,0,0,0.00716884,0,0,0.0157653,0,0,0.0536624,0,0
92.2317,-0.003631,0,0,-0.0306569,0,0,9.95841,0,0,0.0124248,0,0,0.0154005,0,0,0.0512401,0,0
92.3317,-0.00359665,0,0,-0.0428705,0,0,9.95994,0,0,0.0173748,0,0,0.0150391,0,0,0.0475562,0,0
92.4317,-0.00356198,0,0,-0.0540285,0,0,9.96142,0,0,0.0218969,0,0,0.0146812,0,0,0.0427012,0,0
92.5317,-0.00352701,0,0,-0.0638562,0,0,9.96287,0,0,0.0258799,0,0,0.0143268,0,0,0.0367948,0,0
92.6317,-0.00349174,0,0,-0.0721115,0,0,9.96429,0,0,0.0292257,0,0,0.0139758,0,0,0.0299824,0,0
92.7317,-0.00345616,0,0,-0.0785911,0,0,9.96567,0,0,0.0318518,0,0,0.0136284,0,0,0.0224318,0,0
92.8317,-0.00342027,0,0,-0.0831356,0,0,9.96701,0,0,0.0336936,0,0,0.0132846,0,0,0.0143288,0,0
92.9317,-0.00338407,0,0,-0.0856331,0,0,9.96832,0,0,0.0347058,0,0,0.0129444,0,0,0.00587294,0,0
93.0317,-0.00334756,0,0,-0.0860219,0,0,9.9696,0,0,0.0348634,0,0,0.0126078,0,0,-0.0027275,0,0
93.1317,-0.00331074,0,0,-0.0842926,0,0,9.97085,0,0,0.0341625,0,0,0.0122749,0,0,-0.0112608,0,0
93.2317,-0.00327362,0,0,-0.0804878,0,0,9.97206,0,0,0.0326205,0,0,0.0119457,0,0,-0.0195168,0,0
93.3317,-0.00323618,0,0,-0.074701,0,0,9.97324,0,0,0.0302752,0,0,0.0116202,0,0,-0.0272922,0,0
93.4317,-0.00319843,0,0,-0.0670749,0,0,9.97438,0,0,0.0271844,0,0,0.0112984,0,0,-0.0343956,0,0
93.5317,-0.00316036,0,0,-0.0577972,0,0,9.9755,0,0,0.0234243,0,0,0.0109805,0,0,-0.0406521,0,0
93.6317,-0.00312199,0,0,-0.0470963,0,0,9.97658,0,0,0.0190874,0,0,0.0106664,0,0,-0.0459076,0,0
93.7317,-0.00308329,0,0,-0.0352358,0,0,9.97763,0,0,0.0142805,0,0,0.0103561,0,0,-0.0500327,0,0
93.8317,-0.00304429,0,0,-0.0225076,0,0,9.97865,0,0,0.00912198,0,0,0.0100497,0,0,-0.0529258,0,0
93.9317,-0.00300497,0,0,-0.00922519,0,0,9.97964,0,0,0.00373883,0,0,0.00974725,0,0,-0.0545157,0,0
94.0317,-0.00296533,0,0,0.00428435,0,0,9.9806,0,0,-0.00173638,0,0,0.00944874,0,0,-0.0547633,0,0
94.1317,-0.00292537,0,0,0.0176884,0,0,9.98153,0,0,-0.00716884,0,0,0.0091542,0,0,-0.0536624,0,0
94.2317,-0.0028851,0,0,0.0306569,0,0,9.98243,0,0,-0.0124248,0,0,0.00886367,0,0,-0.0512401,0,0
94.3317,-0.00284451,0,0,0.0428705,0,0,9.9833,0,0,-0.0173748,0,0,0.00857719,0,0,-0.0475562,0,0
94.4317,-0.0028036,0,0,0.0540285,0,0,9.98415,0,0,-0.0218969,0,0,0.00829478,0,0,-0.0427012,0,0
94.5317,-0.00276237,0,0,0.0638562,0,0,9.98496,0,0,-0.0258799,0,0,0.00801648,0,0,-0.0367948,0,0
94.6317,-0.00272082,0,0,0.0721115,0,0,9.98575,0,0,-0.0292257,0,0,0.00774232,0,0,-0.0299824,0,0
94.7317,-0.00267894,0,0,0.0785911,0,0,9.98651,0,0,-0.0318518,0,0,0.00747233,0,0,-0.0224318,0,0
94.8317,-0.00263675,0,0,0.0831356,0,0,9.98724,0,0,-0.0336936,0,0,0.00720654,0,0,-0.0143288,0,0
94.9317,-0.00259423,0,0,0.0856331,0,0,9.98795,0,0,-0.0347058,0,0,0.00694499,0,0,-0.00587294,0,0
95.0317,-0.00255139,0,0,0.0860219,0,0,9.98863,0,0,-0.0348634,0,0,0.0066877,0,0,0.0027275,0,0
95.1317,-0.00250823,0,0,0.0842926,0,0,9.98929,0,0,-0.0341625,0,0,0.00643472,0,0,0.0112608,0,0
95.2317,-0.00246474,0,0,0.0804878,0,0,9.98992,0,0,-0.0326205,0,0,0.00618607,0,0,0.0195168,0,0
95.3317,-0.00242092,0,0,0.074701,0,0,9.99053,0,0,-0.0302752,0,0,0.00594178,0,0,0.0272922,0,0
95.4317,-0.00237678,0,0,0.0670749,0,0,9.99111,0,0,-0.0271844,0,0,0.0057019,0,0,0.0343956,0,0
95.5317,-0.00233231,0,0,0.0577972,0,0,9.99167,0,0,-0.0234243,0,0,0.00546644,0,0,0.0406521,0,0
95.6317,-0.00228751,0,0,0.0470963,0,0,9.9922,0,0,-0.0190874,0,0,0.00523544,0,0,0.0459076,0,0
95.7317,-0.00224239,0,0,0.0352358,0,0,9.99271,0,0,-0.0142805,0,0,0.00500895,0,0,0.0500327,0,0
95.8317,-0.00219693,0,0,0.0225076,0,0,9.9932,0,0,-0.00912198,0,0,0.00478698,0,0,0.0529258,0,0
95.9317,-0.00215115,0,0,0.00922519,0,0,9.99367,0,0,-0.00373883,0,0,0.00456957,0,0,0.0545157,0,0
96.0317,-0.00210503,0,0,-0.00428435,0,0,9.99412,0,0,0.00173638,0,0,0.00435676,0,0,0.0547633,0,0
96.1317,-0.00205859,0,0,-0.0176884,0,0,9.99454,0,0,0.00716884,0,0,0.00414857,0,0,0.0536624,0,0
96.2317,-0.00201181,0,0,-0.0306569,0,0,9.99495,0,0,0.0124248,0,0,0.00394505,0,0,0.0512401,0,0
96.3317,-0.0019647,0,0,-0.0428705,0,0,9.99533,0,0,0.0173748,0,0,0.00374622,0,0,0.0475562,0,0
96.4317,-0.00191725,0,0,-0.0540285,0,0,9.9957,0,0,0.0218969,0,0,0.00355212,0,0,0.0427012,0,0
96.5317,-0.00186947,0,0,-0.0638562,0,0,9.99604,0,0,0.0258799,0,0,0.00336278,0,0,0.0367948,0,0
96.6317,-0.00182136,0,0,-0.0721115,0,0,9.99637,0,0,0.0292257,0,0,0.00317824,0,0,0.0299824,0,0
96.7317,-0.00177291,0,0,-0.0785911,0,0,9.99668,0,0,0.0318518,0,0,0.00299852,0,0,0.0224318,0,0
96.8317,-0.00172412,0,0,-0.0831356,0,0,9.99697,0,0,0.0336936,0,0,0.00282367,0,0,0.0143288,0,0
96.9317,-0.001675,0,0,-0.0856331,0,0,9.99724,0,0,0.0347058,0,0,0.00265371,0,0,0.00587294,0,0
97.0317,-0.00162553,0,0,-0.0860219,0,0,9.9975,0,0,0.0348634,0,0,0.00248868,0,0,-0.0027275,0,0
97.1317,-0.00157573,0,0,-0.0842926,0,0,9.99774,0,0,0.0341625,0,0,0.00232862,0,0,-0.0112608,0,0
97.2317,-0.00152559,0,0,-0.0804878,0,0,9.99797,0,0,0.0326205,0,0,0.00217355,0,0,-0.0195168,0,0
97.3317,-0.00147511,0,0,-0.074701,0,0,9.99818,0,0,0.0302752,0,0,0.00202351,0,0,-0.0272922,0,0
97.4317,-0.00142429,0,0,-0.0670749,0,0,9.99837,0,0,0.0271844,0,0,0.00187854,0,0,-0.0343956,0,0
97.5317,-0.00137313,0,0,-0.0577972,0,0,9.99855,0,0,0.0234243,0,0,0.00173866,0,0,-0.0406521,0,0
97.6317,-0.00132162,0,0,-0.0470963,0,0,9.99872,0,0,0.0190874,0,0,0.00160392,0,0,-0.0459076,0,0
97.7317,-0.00126978,0,0,-0.0352358,0,0,9.99887,0,0,0.0142805,0,0,0.00147435,0,0,-0.0500327,0,0
97.8317,-0.00121759,0,0,-0.0225076,0,0,9.99901,0,0,0.00912198,0,0,0.00134998,0,0,-0.0529258,0,0
97.9317,-0.00116505,0,0,-0.00922519,0,0,9.99914,0,0,0.00373883,0,0,0.00123084,0,0,-0.0545157,0,0
98.0317,-0.00111217,0,0,0.00428435,0,0,9.99926,0,0,-0.00173638,0,0,0.00111698,0,0,-0.0547633,0,0
98.1317,-0.00105894,0,0,0.0176884,0,0,9.99937,0,0,-0.00716884,0,0,0.00100842,0,0,-0.0536624,0,0
98.2317,-0.00100537,0,0,0.0306569,0,0,9.99946,0,0,-0.0124248,0,0,0.000905202,0,0,-0.0512401,0,0
98.3317,-0.00095145,0,0,0.0428705,0,0,9.99955,0,0,-0.0173748,0,0,0.000807359,0,0,-0.0475562,0,0
98.4317,-0.000897181,0,0,0.0540285,0,0,9.99962,0,0,-0.0218969,0,0,0.000714924,0,0,-0.0427012,0,0
98.5317,-0.000842564,0,0,0.0638562,0,0,9.99969,0,0,-0.0258799,0,0,0.000627934,0,0,-0.0367948,0,0
98.6317,-0.000787598,0,0,0.0721115,0,0,9.99975,0,0,-0.0292257,0,0,0.000546423,0,0,-0.0299824,0,0
98.7317,-0.000732281,0,0,0.0785911,0,0,9.9998,0,0,-0.0318518,0,0,0.000470426,0,0,-0.0224318,0,0
98.8317,-0.000676613,0,0,0.0831356,0,0,9.99984,0,0,-0.0336936,0,0,0.000399978,0,0,-0.0143288,0,0
98.9317,-0.000620594,0,0,0.0856331,0,0,9.99988,0,0,-0.0347058,0,0,0.000335115,0,0,-0.00587294,0,0
99.0317,-0.000564223,0,0,0.0860219,0,0,9.99991,0,0,-0.0348634,0,0,0.000275871,0,0,0.0027275,0,0
99.1317,-0.000507498,0,0,0.0842926,0,0,9.99994,0,0,-0.0341625,0,0,0.000222282,0,0,0.0112608,0,0
99.2317,-0.00045042,0,0,0.0804878,0,0,9.99996,0,0,-0.0326205,0,0,0.000174383,0,0,0.0195168,0,0
99.3317,-0.000392988,0,0,0.074701,0,0,9.99997,0,0,-0.0302752,0,0,0.00013221,0,0,0.0272922,0,0
99.4317,-0.0003352,0,0,0.0670749,0,0,9.99998,0,0,-0.0271844,0,0,9.58E-05,0,0,0.0343956,0,0
99.5317,-0.000277056,0,0,0.0577972,0,0,9.99999,0,0,-0.0234243,0,0,6.52E-05,0,0,0.0406521,0,0
99.6317,-0.000218556,0,0,0.0470963,0,0,10,0,0,-0.0190874,0,0,4.04E-05,0,0,0.0459076,0,0
99.7317,-0.000159698,0,0,0.0352358,0,0,10,0,0,-0.0142805,0,0,2.15E-05,0,0,0.0500327,0,0
99.8317,-0.000100482,0,0,0.0225076,0,0,10,0,0,-0.00912198,0,0,8.47E-06,0,0,0.0529258,0,0
99.9317,-4.09E-05,0,0,0.00922519,0,0,10,0,0,-0.00373883,0,0,1.40E-06,0,0,0.0545157,0,0
100.032,0,1.90E-05,0,-0.00428435,0,0,10,3.18E-09,0,0.00173638,0,0,0,3.01E-07,0,0.0547633,0,0
100.132,0,7.87E-05,0,-0.0176884,0,0,10,2.28E-07,0,0.00716884,0,0,0,5.19E-06,0,0.0536624,0,0
100.232,0,0.000138044,0,-0.0306569,0,0,10,1.24E-06,0,0.0124248,0,0,0,1.60E-05,0,0.0512401,0,0
100.332,0,0.000197033,0,-0.0428705,0,0,10,3.63E-06,0,0.0173748,0,0,0,3.28E-05,0,0.0475562,0,0
100.432,0,0.000255664,0,-0.0540285,0,0,10,7.99E-06,0,0.0218969,0,0,0,5.54E-05,0,0.0427012,0,0
100.532,0,0.000313938,0,-0.0638562,0,0,10,1.49E-05,0,0.0258799,0,0,0,8.39E-05,0,0.0367948,0,0
100.632,0,0.000371856,0,-0.0721115,0,0,10,2.50E-05,0,0.0292257,0,0,0,0.000118199,0,0.0299824,0,0
100.732,0,0.000429419,0,-0.0785911,0,0,10,3.87E-05,0,0.0318518,0,0,0,0.000158265,0,0.0224318,0,0
100.832,0,0.000486627,0,-0.0831356,0,0,10,5.68E-05,0,0.0336936,0,0,0,0.000204071,0,0.0143288,0,0
100.932,0,0.000543481,0,-0.0856331,0,0,10,7.97E-05,0,0.0347058,0,0,0,0.000255579,0,0.00587294,0,0
101.032,0,0.000599982,0,-0.0860219,0,0,10,0.000108116,0,0.0348634,0,0,0,0.000312755,0,-0.0027275,0,0
101.132,0,0.00065613,0,-0.0842926,0,0,10,0.000142485,0,0.0341625,0,0,0,0.000375564,0,-0.0112608,0,0
101.232,0,0.000711926,0,-0.0804878,0,0,10,0.000183416,0,0.0326205,0,0,0,0.000443969,0,-0.0195168,0,0
101.332,0,0.000767371,0,-0.074701,0,0,10,0.000231465,0,0.0302752,0,0,0,0.000517937,0,-0.0272922,0,0
101.432,0,0.000822466,0,-0.0670749,0,0,10,0.000287187,0,0.0271844,0,0,0,0.000597432,0,-0.0343956,0,0
101.532,0,0.000877211,0,-0.0577972,0,0,10,0.000351134,0,0.0234243,0,0,0,0.000682419,0,-0.0406521,0,0
101.632,0,0.000931607,0,-0.0470963,0,0,10,0.000423853,0,0.0190874,0,0,0,0.000772862,0,-0.0459076,0,0
101.732,0,0.000985655,0,-0.0352358,0,0,10,0.000505887,0,0.0142805,0,0,0,0.000868728,0,-0.0500327,0,0
101.832,0,0.00103935,0,-0.0225076,0,0,10,0.000597778,0,0.00912198,0,0,0,0.000969982,0,-0.0529258,0,0
101.932,0,0.00109271,0,-0.00922519,0,0,10,0.000700062,0,0.00373883,0,0,0,0.00107659,0,-0.0545157,0,0
102.032,0,0.00114572,0,0.00428435,0,0,10,0.000813273,0,-0.00173638,0,0,0,0.00118851,0,-0.0547633,0,0
102.132,0,0.00119838,0,0.0176884,0,0,10,0.000937941,0,-0.00716884,0,0,0,0.00130572,0,-0.0536624,0,0
102.232,0,0.0012507,0,0.0306569,0,0,10,0.00107459,0,-0.0124248,0,0,0,0.00142818,0,-0.0512401,0,0
102.332,0,0.00130267,0,0.0428705,0,0,10,0.00122375,0,-0.0173748,0,0,0,0.00155585,0,-0.0475562,0,0
102.432,0,0.0013543,0,0.0540285,0,0,10,0.00138593,0,-0.0218969,0,0,0,0.0016887,0,-0.0427012,0,0
102.532,0,0.00140559,0,0.0638562,0,0,10,0.00156166,0,-0.0258799,0,0,0,0.0018267,0,-0.0367948,0,0
102.632,0,0.00145653,0,0.0721115,0,0,10,0.00175144,0,-0.0292257,0,0,0,0.0019698,0,-0.0299824,0,0
102.732,0,0.00150714,0,0.0785911,0,0,10,0.00195579,0,-0.0318518,0,0,0,0.00211799,0,-0.0224318,0,0
102.832,0,0.0015574,0,0.0831356,0,0,10,0.00217521,0,-0.0336936,0,0,0,0.00227122,0,-0.0143288,0,0
102.932,0,0.00160733,0,0.0856331,0,0,10,0.0024102,0,-0.0347058,0,0,0,0.00242946,0,-0.00587294,0,0
103.032,0,0.00165691,0,0.0860219,0,0,10,0.00266127,0,-0.0348634,0,0,0,0.00259267,0,0.0027275,0,0
103.132,0,0.00170616,0,0.0842926,0,0,10,0.0029289,0,-0.0341625,0,0,0,0.00276083,0,0.0112608,0,0
103.232,0,0.00175507,0,0.0804878,0,0,10,0.0032136,0,-0.0326205,0,0,0,0.0029339,0,0.0195168,0,0
103.332,0,0.00180364,0,0.074701,0,0,10,0.00351584,0,-0.0302752,0,0,0,0.00311183,0,0.0272922,0,0
103.432,0,0.00185188,0,0.0670749,0,0,10,0.00383613,0,-0.0271844,0,0,0,0.00329461,0,0.0343956,0,0
103.532,0,0.00189978,0,0.0577972,0,0,10,0.00417493,0,-0.0234243,0,0,0,0.0034822,0,0.0406521,0,0
103.632,0,0.00194735,0,0.0470963,0,0,10,0.00453272,0,-0.0190874,0,0,0,0.00367456,0,0.0459076,0,0
103.732,0,0.00199459,0,0.0352358,0,0,10,0.00491,0,-0.0142805,0,0,0,0.00387166,0,0.0500327,0,0
103.832,0,0.00204149,0,0.0225076,0,0,10,0.00530721,0,-0.00912198,0,0,0,0.00407346,0,0.0529258,0,0
103.932,0,0.00208806,0,0.00922519,0,0,10,0.00572484,0,-0.00373883,0,0,0,0.00427994,0,0.0545157,0,0
104.032,0,0.00213429,0,-0.00428435,0,0,10,0.00616336,0,0.00173638,0,0,0,0.00449106,0,0.0547633,0,0
104.132,0,0.0021802,0,-0.0176884,0,0,10,0.00662321,0,0.00716884,0,0,0,0.00470679,0,0.0536624,0,0
104.232,0,0.00222577,0,-0.0306569,0,0,10,0.00710487,0,0.0124248,0,0,0,0.00492709,0,0.0512401,0,0
104.332,0,0.00227102,0,-0.0428705,0,0,10,0.00760878,0,0.0173748,0,0,0,0.00515194,0,0.0475562,0,0
104.432,0,0.00231594,0,-0.0540285,0,0,10,0.0081354,0,0.0218969,0,0,0,0.00538129,0,0.0427012,0,0
104.532,0,0.00236053,0,-0.0638562,0,0,10,0.00868519,0,0.0258799,0,0,0,0.00561511,0,0.0367948,0,0
104.632,0,0.00240479,0,-0.0721115,0,0,10,0.00925857,0,0.0292257,0,0,0,0.00585338,0,0.0299824,0,0
104.732,0,0.00244872,0,-0.0785911,0,0,10,0.00985601,0,0.0318518,0,0,0,0.00609606,0,0.0224318,0,0
104.832,0,0.00249233,0,-0.0831356,0,0,10,0.0104779,0,0.0336936,0,0,0,0.00634311,0,0.0143288,0,0
104.932,0,0.00253562,0,-0.0856331,0,0,10,0.0111248,0,0.0347058,0,0,0,0.00659451,0,0.00587294,0,0
105.032,0,0.00257857,0,-0.0860219,0,0,10,0.011797,0,0.0348634,0,0,0,0.00685023,0,-0.0027275,0,0
105.132,0,0.00262121,0,-0.0842926,0,0,10,0.012495,0,0.0341625,0,0,0,0.00711022,0,-0.0112608,0,0
105.232,0,0.00266352,0,-0.0804878,0,0,10,0.0132192,0,0.0326205,0,0,0,0.00737446,0,-0.0195168,0,0
105.332,0,0.00270551,0,-0.074701,0,0,10,0.01397,0,0.0302752,0,0,0,0.00764291,0,-0.0272922,0,0
105.432,0,0.00274718,0,-0.0670749,0,0,10,0.0147479,0,0.0271844,0,0,0,0.00791555,0,-0.0343956,0,0
105.532,0,0.00278853,0,-0.0577972,0,0,10,0.0155532,0,0.0234243,0,0,0,0.00819234,0,-0.0406521,0,0
105.632,0,0.00282956,0,-0.0470963,0,0,10,0.0163865,0,0.0190874,0,0,0,0.00847325,0,-0.0459076,0,0
105.732,0,0.00287027,0,-0.0352358,0,0,10,0.017248,0,0.0142805,0,0,0,0.00875824,0,-0.0500327,0,0
105.832,0,0.00291065,0,-0.0225076,0,0,10,0.0181383,0,0.00912198,0,0,0,0.00904729,0,-0.0529258,0,0
105.932,0,0.00295073,0,-0.00922519,0,0,10,0.0190576,0,0.00373883,0,0,0,0.00934036,0,-0.0545157,0,0
106.032,0,0.00299048,0,0.00428435,0,0,10,0.0200065,0,-0.00173638,0,0,0,0.00963742,0,-0.0547633,0,0
106.132,0,0.00302992,0,0.0176884,0,0,10,0.0209852,0,-0.00716884,0,0,0,0.00993844,0,-0.0536624,0,0
106.232,0,0.00306904,0,0.0306569,0,0,10,0.0219943,0,-0.0124248,0,0,0,0.0102434,0,-0.0512401,0,0
106.332,0,0.00310785,0,0.0428705,0,0,10,0.023034,0,-0.0173748,0,0,0,0.0105522,0,-0.0475562,0,0
106.432,0,0.00314634,0,0.0540285,0,0,10,0.0241049,0,-0.0218969,0,0,0,0.010865,0,-0.0427012,0,0
106.532,0,0.00318452,0,0.0638562,0,0,10,0.0252072,0,-0.0258799,0,0,0,0.0111815,0,-0.0367948,0,0
106.632,0,0.00322238,0,0.0721115,0,0,10,0.0263413,0,-0.0292257,0,0,0,0.0115018,0,-0.0299824,0,0
106.732,0,0.00325993,0,0.0785911,0,0,10,0.0275077,0,-0.0318518,0,0,0,0.011826,0,-0.0224318,0,0
106.832,0,0.00329718,0,0.0831356,0,0,10,0.0287066,0,-0.0336936,0,0,0,0.0121538,0,-0.0143288,0,0
106.932,0,0.00333411,0,0.0856331,0,0,10,0.0299386,0,-0.0347058,0,0,0,0.0124854,0,-0.00587294,0,0
107.032,0,0.00337073,0,0.0860219,0,0,10,0.0312038,0,-0.0348634,0,0,0,0.0128206,0,0.0027275,0,0
107.132,0,0.00340704,0,0.0842926,0,0,10,0.0325028,0,-0.0341625,0,0,0,0.0131595,0,0.0112608,0,0
107.232,0,0.00344304,0,0.0804878,0,0,10,0.0338358,0,-0.0326205,0,0,0,0.013502,0,0.0195168,0,0
107.332,0,0.00347874,0,0.074701,0,0,10,0.0352033,0,-0.0302752,0,0,0,0.0138481,0,0.0272922,0,0
107.432,0,0.00351412,0,0.0670749,0,0,10,0.0366056,0,-0.0271844,0,0,0,0.0141978,0,0.0343956,0,0
107.532,0,0.00354921,0,0.0577972,0,0,10,0.038043,0,-0.0234243,0,0,0,0.0145509,0,0.0406521,0,0
107.632,0,0.00358398,0,0.0470963,0,0,10,0.0395159,0,-0.0190874,0,0,0,0.0149076,0,0.0459076,0,0
107.732,0,0.00361845,0,0.0352358,0,0,10,0.0410246,0,-0.0142805,0,0,0,0.0152677,0,0.0500327,0,0
107.832,0,0.00365262,0,0.0225076,0,0,10,0.0425696,0,-0.00912198,0,0,0,0.0156313,0,0.0529258,0,0
107.932,0,0.00368648,0,0.00922519,0,0,10,0.044151,0,-0.00373883,0,0,0,0.0159982,0,0.0545157,0,0
108.032,0,0.00372004,0,-0.00428435,0,0,10,0.0457693,0,0.00173638,0,0,0,0.0163686,0,0.0547633,0,0
108.132,0,0.0037533,0,-0.0176884,0,0,10,0.0474248,0,0.00716884,0,0,0,0.0167422,0,0.0536624,0,0
108.232,0,0.00378625,0,-0.0306569,0,0,10,0.0491179,0,0.0124248,0,0,0,0.0171192,0,0.0512401,0,0
108.332,0,0.00381891,0,-0.0428705,0,0,10,0.0508488,0,0.0173748,0,0,0,0.0174995,0,0.0475562,0,0
108.432,0,0.00385126,0,-0.0540285,0,0,10,0.0526179,0,0.0218969,0,0,0,0.017883,0,0.0427012,0,0
108.532,0,0.00388332,0,-0.0638562,0,0,10,0.0544255,0,0.0258799,0,0,0,0.0182697,0,0.0367948,0,0
108.632,0,0.00391508,0,-0.0721115,0,0,10,0.0562719,0,0.0292257,0,0,0,0.0186596,0,0.0299824,0,0
108.732,0,0.00394653,0,-0.0785911,0,0,10,0.0581575,0,0.0318518,0,0,0,0.0190527,0,0.0224318,0,0
108.832,0,0.0039777,0,-0.0831356,0,0,10,0.0600826,0,0.0336936,0,0,0,0.0194489,0,0.0143288,0,0
108.932,0,0.00400856,0,-0.0856331,0,0,10,0.0620474,0,0.0347058,0,0,0,0.0198483,0,0.00587294,0,0
109.032,0,0.00403913,0,-0.0860219,0,0,10,0.0640523,0,0.0348634,0,0,0,0.0202506,0,-0.0027275,0,0
109.132,0,0.00406941,0,-0.0842926,0,0,10,0.0660976,0,0.0341625,0,0,0,0.0206561,0,-0.0112608,0,0
109.232,0,0.00409939,0,-0.0804878,0,0,10,0.0681836,0,0.0326205,0,0,0,0.0210645,0,-0.0195168,0,0
109.332,0,0.00412908,0,-0.074701,0,0,10,0.0703106,0,0.0302752,0,0,0,0.0214759,0,-0.0272922,0,0
109.432,0,0.00415847,0,-0.0670749,0,0,10,0.0724789,0,0.0271844,0,0,0,0.0218903,0,-0.0343956,0,0
109.532,0,0.00418757,0,-0.0577972,0,0,10,0.0746888,0,0.0234243,0,0,0,0.0223076,0,-0.0406521,0,0
109.632,0,0.00421638,0,-0.0470963,0,0,10,0.0769406,0,0.0190874,0,0,0,0.0227278,0,-0.0459076,0,0
109.732,0,0.0042449,0,-0.0352358,0,0,10,0.0792345,0,0.0142805,0,0,0,0.0231509,0,-0.0500327,0,0
109.832,0,0.00427314,0,-0.0225076,0,0,10,0.0815708,0,0.00912198,0,0,0,0.0235768,0,-0.0529258,0,0
109.932,0,0.00430108,0,-0.00922519,0,0,10,0.0839499,0,0.00373883,0,0,0,0.0240055,0,-0.0545157,0,0
110.032,0,0.00432873,0,0.00428435,0,0,10,0.086372,0,-0.00173638,0,0,0,0.024437,0,-0.0547633,0,0
110.132,0,0.00435609,0,0.0176884,0,0,10,0.0888374,0,-0.00716884,0,0,0,0.0248712,0,-0.0536624,0,0
110.232,0,0.00438317,0,0.0306569,0,0,10,0.0913464,0,-0.0124248,0,0,0,0.0253082,0,-0.0512401,0,0
110.332,0,0.00440996,0,0.0428705,0,0,10,0.0938991,0,-0.0173748,0,0,0,0.0257479,0,-0.0475562,0,0
110.432,0,0.00443647,0,0.0540285,0,0,10,0.096496,0,-0.0218969,0,0,0,0.0261902,0,-0.0427012,0,0
110.532,0,0.00446269,0,0.0638562,0,0,10,0.0991373,0,-0.0258799,0,0,0,0.0266352,0,-0.0367948,0,0
110.632,0,0.00448863,0,0.0721115,0,0,10,0.101823,0,-0.0292257,0,0,0,0.0270827,0,-0.0299824,0,0
110.732,0,0.00451428,0,0.0785911,0,0,10,0.104554,0,-0.0318518,0,0,0,0.0275329,0,-0.0224318,0,0
110.832,0,0.00453965,0,0.0831356,0,0,10,0.10733,0,-0.0336936,0,0,0,0.0279856,0,-0.0143288,0,0
110.932,0,0.00456474,0,0.0856331,0,0,10,0.110151,0,-0.0347058,0,0,0,0.0284408,0,-0.00587294,0,0
111.032,0,0.00458955,0,0.0860219,0,0,10,0.113018,0,-0.0348634,0,0,0,0.0288985,0,0.0027275,0,0
111.132,0,0.00461408,0,0.0842926,0,0,10,0.115931,0,-0.0341625,0,0,0,0.0293587,0,0.0112608,0,0
111.232,0,0.00463832,0,0.0804878,0,0,10,0.11889,0,-0.0326205,0,0,0,0.0298213,0,0.0195168,0,0
111.332,0,0.00466229,0,0.074701,0,0,10,0.121895,0,-0.0302752,0,0,0,0.0302863,0,0.0272922,0,0
111.432,0,0.00468598,0,0.0670749,0,0,10,0.124947,0,-0.0271844,0,0,0,0.0307538,0,0.0343956,0,0
111.532,0,0.00470939,0,0.0577972,0,0,10,0.128046,0,-0.0234243,0,0,0,0.0312235,0,0.0406521,0,0
111.632,0,0.00473253,0,0.0470963,0,0,10,0.131192,0,-0.0190874,0,0,0,0.0316956,0,0.0459076,0,0
111.732,0,0.00475539,0,0.0352358,0,0,10,0.134385,0,-0.0142805,0,0,0,0.03217,0,0.0500327,0,0
111.832,0,0.00477797,0,0.0225076,0,0,10,0.137626,0,-0.00912198,0,0,0,0.0326467,0,0.0529258,0,0
111.932,0,0.00480028,0,0.00922519,0,0,10,0.140915,0,-0.00373883,0,0,0,0.0331256,0,0.0545157,0,0
112.032,0,0.00482231,0,-0.00428435,0,0,10,0.144251,0,0.00173638,0,0,0,0.0336067,0,0.0547633,0,0
112.132,0,0.00484407,0,-0.0176884,0,0,10,0.147636,0,0.00716884,0,0,0,0.0340901,0,0.0536624,0,0
112.232,0,0.00486556,0,-0.0306569,0,0,10,0.151069,0,0.0124248,0,0,0,0.0345756,0,0.0512401,0,0
112.332,0,0.00488678,0,-0.0428705,0,0,10,0.154551,0,0.0173748,0,0,0,0.0350632,0,0.0475562,0,0
112.432,0,0.00490772,0,-0.0540285,0,0,10,0.158082,0,0.0218969,0,0,0,0.0355529,0,0.0427012,0,0
112.532,0,0.0049284,0,-0.0638562,0,0,10,0.161662,0,0.0258799,0,0,0,0.0360447,0,0.0367948,0,0
112.632,0,0.0049488,0,-0.0721115,0,0,10,0.165291,0,0.0292257,0,0,0,0.0365386,0,0.0299824,0,0
112.732,0,0.00496894,0,-0.0785911,0,0,10,0.16897,0,0.0318518,0,0,0,0.0370345,0,0.0224318,0,0
112.832,0,0.0049888,0,-0.0831356,0,0,10,0.172698,0,0.0336936,0,0,0,0.0375323,0,0.0143288,0,0
112.932,0,0.0050084,0,-0.0856331,0,0,10,0.176476,0,0.0347058,0,0,0,0.0380322,0,0.00587294,0,0
113.032,0,0.00502774,0,-0.0860219,0,0,10,0.180305,0,0.0348634,0,0,0,0.038534,0,-0.0027275,0,0
113.132,0,0.0050468,0,-0.0842926,0,0,10,0.184183,0,0.0341625,0,0,0,0.0390377,0,-0.0112608,0,0
113.232,0,0.0050656,0,-0.0804878,0,0,10,0.188112,0,0.0326205,0,0,0,0.0395434,0,-0.0195168,0,0
113.332,0,0.00508414,0,-0.074701,0,0,10,0.192092,0,0.0302752,0,0,0,0.0400509,0,-0.0272922,0,0
113.432,0,0.00510241,0,-0.0670749,0,0,10,0.196122,0,0.0271844,0,0,0,0.0405602,0,-0.0343956,0,0
113.532,0,0.00512042,0,-0.0577972,0,0,10,0.200204,0,0.0234243,0,0,0,0.0410713,0,-0.0406521,0,0
113.632,0,0.00513817,0,-0.0470963,0,0,10,0.204337,0,0.0190874,0,0,0,0.0415843,0,-0.0459076,0,0
113.732,0,0.00515565,0,-0.0352358,0,0,10,0.208521,0,0.0142805,0,0,0,0.042099,0,-0.0500327,0,0
113.832,0,0.00517288,0,-0.0225076,0,0,10,0.212757,0,0.00912198,0,0,0,0.0426154,0,-0.0529258,0,0
113.932,0,0.00518984,0,-0.00922519,0,0,10,0.217044,0,0.00373883,0,0,0,0.0431335,0,-0.0545157,0,0
114.032,0,0.00520654,0,0.00428435,0,0,10,0.221383,0,-0.00173638,0,0,0,0.0436533,0,-0.0547633,0,0
114.132,0,0.00522299,0,0.0176884,0,0,10,0.225775,0,-0.00716884,0,0,0,0.0441748,0,-0.0536624,0,0
114.232,0,0.00523917,0,0.0306569,0,0,10,0.230218,0,-0.0124248,0,0,0,0.0446979,0,-0.0512401,0,0
114.332,0,0.0052551,0,0.0428705,0,0,10,0.234714,0,-0.0173748,0,0,0,0.0452227,0,-0.0475562,0,0
114.432,0,0.00527078,0,0.0540285,0,0,10,0.239263,0,-0.0218969,0,0,0,0.0457489,0,-0.0427012,0,0
114.532,0,0.00528619,0,0.0638562,0,0,10,0.243864,0,-0.0258799,0,0,0,0.0462768,0,-0.0367948,0,0
114.632,0,0.00530135,0,0.0721115,0,0,10,0.248518,0,-0.0292257,0,0,0,0.0468062,0,-0.0299824,0,0
114.732,0,0.00531626,0,0.0785911,0,0,10,0.253225,0,-0.0318518,0,0,0,0.0473371,0,-0.0224318,0,0
114.832,0,0.00533091,0,0.0831356,0,0,10,0.257986,0,-0.0336936,0,0,0,0.0478694,0,-0.0143288,0,0
114.932,0,0.00534531,0,0.0856331,0,0,10,0.262799,0,-0.0347058,0,0,0,0.0484032,0,-0.00587294,0,0
115.032,0,0.00535945,0,0.0860219,0,0,10,0.267666,0,-0.0348634,0,0,0,0.0489385,0,0.0027275,0,0
115.132,0,0.00537335,0,0.0842926,0,0,10,0.272587,0,-0.0341625,0,0,0,0.0494751,0,0.0112608,0,0
115.232,0,0.00538699,0,0.0804878,0,0,10,0.277562,0,-0.0326205,0,0,0,0.0500131,0,0.0195168,0,0
115.332,0,0.00540039,0,0.074701,0,0,10,0.28259,0,-0.0302752,0,0,0,0.0505525,0,0.0272922,0,0
115.432,0,0.00541353,0,0.0670749,0,0,10,0.287672,0,-0.0271844,0,0,0,0.0510932,0,0.0343956,0,0
115.532,0,0.00542642,0,0.0577972,0,0,10,0.292809,0,-0.0234243,0,0,0,0.0516352,0,0.0406521,0,0
115.632,0,0.00543907,0,0.0470963,0,0,10,0.297999,0,-0.0190874,0,0,0,0.0521785,0,0.0459076,0,0
115.732,0,0.00545147,0,0.0352358,0,0,10,0.303244,0,-0.0142805,0,0,0,0.052723,0,0.0500327,0,0
115.832,0,0.00546362,0,0.0225076,0,0,10,0.308544,0,-0.00912198,0,0,0,0.0532688,0,0.0529258,0,0
115.932,0,0.00547553,0,0.00922519,0,0,10,0.313898,0,-0.00373883,0,0,0,0.0538157,0,0.0545157,0,0
116.032,0,0.00548719,0,-0.00428435,0,0,10,0.319307,0,0.00173638,0,0,0,0.0543639,0,0.0547633,0,0
116.132,0,0.0054986,0,-0.0176884,0,0,10,0.324771,0,0.00716884,0,0,0,0.0549132,0,0.0536624,0,0
116.232,0,0.00550978,0,-0.0306569,0,0,10,0.33029,0,0.0124248,0,0,0,0.0554636,0,0.0512401,0,0
116.332,0,0.00552071,0,-0.0428705,0,0,10,0.335864,0,0.0173748,0,0,0,0.0560151,0,0.0475562,0,0
116.432,0,0.00553139,0,-0.0540285,0,0,10,0.341493,0,0.0218969,0,0,0,0.0565677,0,0.0427012,0,0
116.532,0,0.00554184,0,-0.0638562,0,0,10,0.347177,0,0.0258799,0,0,0,0.0571214,0,0.0367948,0,0
116.632,0,0.00555204,0,-0.0721115,0,0,10,0.352917,0,0.0292257,0,0,0,0.0576761,0,0.0299824,0,0
116.732,0,0.00556201,0,-0.0785911,0,0,10,0.358712,0,0.0318518,0,0,0,0.0582318,0,0.0224318,0,0
116.832,0,0.00557173,0,-0.0831356,0,0,10,0.364563,0,0.0336936,0,0,0,0.0587885,0,0.0143288,0,0
116.932,0,0.00558122,0,-0.0856331,0,0,10,0.37047,0,0.0347058,0,0,0,0.0593461,0,0.00587294,0,0
117.032,0,0.00559046,0,-0.0860219,0,0,10,0.376433,0,0.0348634,0,0,0,0.0599047,0,-0.0027275,0,0
117.132,0,0.00559947,0,-0.0842926,0,0,10,0.382451,0,0.0341625,0,0,0,0.0604642,0,-0.0112608,0,0
117.232,0,0.00560825,0,-0.0804878,0,0,10,0.388526,0,0.0326205,0,0,0,0.0610246,0,-0.0195168,0,0
117.332,0,0.00561679,0,-0.074701,0,0,10,0.394656,0,0.0302752,0,0,0,0.0615858,0,-0.0272922,0,0
117.432,0,0.00562509,0,-0.0670749,0,0,10,0.400843,0,0.0271844,0,0,0,0.0621479,0,-0.0343956,0,0
117.532,0,0.00563316,0,-0.0577972,0,0,10,0.407086,0,0.0234243,0,0,0,0.0627108,0,-0.0406521,0,0
117.632,0,0.00564099,0,-0.0470963,0,0,10,0.413385,0,0.0190874,0,0,0,0.0632746,0,-0.0459076,0,0
117.732,0,0.00564859,0,-0.0352358,0,0,10,0.419741,0,0.0142805,0,0,0,0.063839,0,-0.0500327,0,0
117.832,0,0.00565596,0,-0.0225076,0,0,10,0.426153,0,0.00912198,0,0,0,0.0644043,0,-0.0529258,0,0
117.932,0,0.0056631,0,-0.00922519,0,0,10,0.432621,0,0.00373883,0,0,0,0.0649702,0,-0.0545157,0,0
118.032,0,0.00567,0,0.00428435,0,0,10,0.439147,0,-0.00173638,0,0,0,0.0655369,0,-0.0547633,0,0
118.132,0,0.00567668,0,0.0176884,0,0,10,0.445729,0,-0.00716884,0,0,0,0.0661042,0,-0.0536624,0,0
118.232,0,0.00568313,0,0.0306569,0,0,10,0.452368,0,-0.0124248,0,0,0,0.0666722,0,-0.0512401,0,0
118.332,0,0.00568934,0,0.0428705,0,0,10,0.459063,0,-0.0173748,0,0,0,0.0672408,0,-0.0475562,0,0
118.432,0,0.00569533,0,0.0540285,0,0,10,0.465816,0,-0.0218969,0,0,0,0.0678101,0,-0.0427012,0,0
118.532,0,0.0057011,0,0.0638562,0,0,10,0.472625,0,-0.0258799,0,0,0,0.0683799,0,-0.0367948,0,0
118.632,0,0.00570663,0,0.0721115,0,0,10,0.479492,0,-0.0292257,0,0,0,0.0689503,0,-0.0299824,0,0
118.732,0,0.00571194,0,0.0785911,0,0,10,0.486415,0,-0.0318518,0,0,0,0.0695212,0,-0.0224318,0,0
118.832,0,0.00571703,0,0.0831356,0,0,10,0.493396,0,-0.0336936,0,0,0,0.0700927,0,-0.0143288,0,0
118.932,0,0.00572189,0,0.0856331,0,0,10,0.500434,0,-0.0347058,0,0,0,0.0706646,0,-0.00587294,0,0
119.032,0,0.00572652,0,0.0860219,0,0,10,0.507529,0,-0.0348634,0,0,0,0.071237,0,0.0027275,0,0
119.132,0,0.00573094,0,0.0842926,0,0,10,0.514681,0,-0.0341625,0,0,0,0.0718099,0,0.0112608,0,0
119.232,0,0.00573513,0,0.0804878,0,0,10,0.521891,0,-0.0326205,0,0,0,0.0723832,0,0.0195168,0,0
119.332,0,0.0057391,0,0.074701,0,0,10,0.529158,0,-0.0302752,0,0,0,0.0729569,0,0.0272922,0,0
119.432,0,0.00574285,0,0.0670749,0,0,10,0.536482,0,-0.0271844,0,0,0,0.073531,0,0.0343956,0,0
119.532,0,0.00574638,0,0.0577972,0,0,10,0.543864,0,-0.0234243,0,0,0,0.0741055,0,0.0406521,0,0
119.632,0,0.00574969,0,0.0470963,0,0,10,0.551304,0,-0.0190874,0,0,0,0.0746803,0,0.0459076,0,0
119.732,0,0.00575278,0,0.0352358,0,0,10,0.5588,0,-0.0142805,0,0,0,0.0752554,0,0.0500327,0,0
119.832,0,0.00575565,0,0.0225076,0,0,10,0.566355,0,-0.00912198,0,0,0,0.0758308,0,0.0529258,0,0
119.932,0,0.00575831,0,0.00922519,0,0,10,0.573967,0,-0.00373883,0,0,0,0.0764065,0,0.0545157,0,0
120.032,0,0.00576075,0,-0.00428435,0,0,10,0.581636,0,0.00173638,0,0,0,0.0769825,0,0.0547633,0,0
120.132,0,0.00576297,0,-0.0176884,0,0,10,0.589363,0,0.00716884,0,0,0,0.0775587,0,0.0536624,0,0
120.232,0,0.00576498,0,-0.0306569,0,0,10,0.597148,0,0.0124248,0,0,0,0.0781351,0,0.0512401,0,0
120.332,0,0.00576678,0,-0.0428705,0,0,10,0.60499,0,0.0173748,0,0,0,0.0787117,0,0.0475562,0,0
120.432,0,0.00576836,0,-0.0540285,0,0,10,0.61289,0,0.0218969,0,0,0,0.0792884,0,0.0427012,0,0
120.532,0,0.00576973,0,-0.0638562,0,0,10,0.620848,0,0.0258799,0,0,0,0.0798653,0,0.0367948,0,0
120.632,0,0.00577088,0,-0.0721115,0,0,10,0.628863,0,0.0292257,0,0,0,0.0804424,0,0.0299824,0,0
120.732,0,0.00577183,0,-0.0785911,0,0,10,0.636936,0,0.0318518,0,0,0,0.0810195,0,0.0224318,0,0
120.832,0,0.00577256,0,-0.0831356,0,0,10,0.645067,0,0.0336936,0,0,0,0.0815967,0,0.0143288,0,0
120.932,0,0.00577308,0,-0.0856331,0,0,10,0.653256,0,0.0347058,0,0,0,0.082174,0,0.00587294,0,0
121.032,0,0.0057734,0,-0.0860219,0,0,10,0.661502,0,0.0348634,0,0,0,0.0827513,0,-0.0027275,0,0
121.132,0,0.0057735,0,-0.0842926,0,0,10,0.669806,0,0.0341625,0,0,0,0.0833287,0,-0.0112608,0,0
121.232,0,0.0057734,0,-0.0804878,0,0,10,0.678168,0,0.0326205,0,0,0,0.083906,0,-0.0195168,0,0
121.332,0,0.00577309,0,-0.074701,0,0,10,0.686587,0,0.0302752,0,0,0,0.0844834,0,-0.0272922,0,0
121.432,0,0.00577258,0,-0.0670749,0,0,10,0.695064,0,0.0271844,0,0,0,0.0850606,0,-0.0343956,0,0
121.532,0,0.00577185,0,-0.0577972,0,0,10,0.703599,0,0.0234243,0,0,0,0.0856379,0,-0.0406521,0,0
121.632,0,0.00577093,0,-0.0470963,0,0,10,0.712192,0,0.0190874,0,0,0,0.086215,0,-0.0459076,0,0
121.732,0,0.0057698,0,-0.0352358,0,0,10,0.720842,0,0.0142805,0,0,0,0.086792,0,-0.0500327,0,0
121.832,0,0.00576846,0,-0.0225076,0,0,10,0.72955,0,0.00912198,0,0,0,0.087369,0,-0.0529258,0,0
121.932,0,0.00576693,0,-0.00922519,0,0,10,0.738316,0,0.00373883,0,0,0,0.0879457,0,-0.0545157,0,0
122.032,0,0.00576519,0,0.00428435,0,0,10,0.747139,0,-0.00173638,0,0,0,0.0885223,0,-0.0547633,0,0
122.132,0,0.00576325,0,0.0176884,0,0,10,0.75602,0,-0.00716884,0,0,0,0.0890988,0,-0.0536624,0,0
122.232,0,0.00576111,0,0.0306569,0,0,10,0.764959,0,-0.0124248,0,0,0,0.089675,0,-0.0512401,0,0
122.332,0,0.00575876,0,0.0428705,0,0,10,0.773955,0,-0.0173748,0,0,0,0.090251,0,-0.0475562,0,0
122.432,0,0.00575622,0,0.0540285,0,0,10,0.783009,0,-0.0218969,0,0,0,0.0908267,0,-0.0427012,0,0
122.532,0,0.00575349,0,0.0638562,0,0,10,0.792121,0,-0.0258799,0,0,0,0.0914022,0,-0.0367948,0,0
122.632,0,0.00575055,0,0.0721115,0,0,10,0.80129,0,-0.0292257,0,0,0,0.0919774,0,-0.0299824,0,0
122.732,0,0.00574742,0,0.0785911,0,0,10,0.810516,0,-0.0318518,0,0,0,0.0925523,0,-0.0224318,0,0
122.832,0,0.00574409,0,0.0831356,0,0,10,0.8198,0,-0.0336936,0,0,0,0.0931269,0,-0.0143288,0,0
122.932,0,0.00574056,0,0.0856331,0,0,10,0.829142,0,-0.0347058,0,0,0,0.0937011,0,-0.00587294,0,0
123.032,0,0.00573684,0,0.0860219,0,0,10,0.83854,0,-0.0348634,0,0,0,0.094275,0,0.0027275,0,0
123.132,0,0.00573293,0,0.0842926,0,0,10,0.847997,0,-0.0341625,0,0,0,0.0948485,0,0.0112608,0,0
123.232,0,0.00572882,0,0.0804878,0,0,10,0.85751,0,-0.0326205,0,0,0,0.0954216,0,0.0195168,0,0
123.332,0,0.00572452,0,0.074701,0,0,10,0.867081,0,-0.0302752,0,0,0,0.0959942,0,0.0272922,0,0
123.432,0,0.00572002,0,0.0670749,0,0,10,0.876709,0,-0.0271844,0,0,0,0.0965665,0,0.0343956,0,0
123.532,0,0.00571534,0,0.0577972,0,0,10,0.886394,0,-0.0234243,0,0,0,0.0971382,0,0.0406521,0,0
123.632,0,0.00571047,0,0.0470963,0,0,10,0.896137,0,-0.0190874,0,0,0,0.0977095,0,0.0459076,0,0
123.732,0,0.0057054,0,0.0352358,0,0,10,0.905936,0,-0.0142805,0,0,0,0.0982803,0,0.0500327,0,0
123.832,0,0.00570015,0,0.0225076,0,0,10,0.915793,0,-0.00912198,0,0,0,0.0988506,0,0.0529258,0,0
123.932,0,0.00569471,0,0.00922519,0,0,10,0.925706,0,-0.00373883,0,0,0,0.0994204,0,0.0545157,0,0
124.032,0,0.00568908,0,-0.00428435,0,0,10,0.935677,0,0.00173638,0,0,0,0.0999895,0,0.0547633,0,0
124.132,0,0.00568326,0,-0.0176884,0,0,10,0.945704,0,0.00716884,0,0,0,0.100558,0,0.0536624,0,0
124.232,0,0.00567726,0,-0.0306569,0,0,10,0.955788,0,0.0124248,0,0,0,0.101126,0,0.0512401,0,0
124.332,0,0.00567107,0,-0.0428705,0,0,10,0.965929,0,0.0173748,0,0,0,0.101694,0,0.0475562,0,0
124.432,0,0.0056647,0,-0.0540285,0,0,10,0.976127,0,0.0218969,0,0,0,0.10226,0,0.0427012,0,0
124.532,0,0.00565814,0,-0.0638562,0,0,10,0.986381,0,0.0258799,0,0,0,0.102827,0,0.0367948,0,0
124.632,0,0.0056514,0,-0.0721115,0,0,10,0.996692,0,0.0292257,0,0,0,0.103392,0,0.0299824,0,0
124.732,0,0.00564447,0,-0.0785911,0,0,10,1.00706,0,0.0318518,0,0,0,0.103957,0,0.0224318,0,0
124.832,0,0.00563737,0,-0.0831356,0,0,10,1.01748,0,0.0336936,0,0,0,0.104521,0,0.0143288,0,0
124.932,0,0.00563008,0,-0.0856331,0,0,10,1.02796,0,0.0347058,0,0,0,0.105084,0,0.00587294,0,0
125.032,0,0.00562262,0,-0.0860219,0,0,10,1.0385,0,0.0348634,0,0,0,0.105647,0,-0.0027275,0,0
