Time,AccX,AccY,AccZ,GyrX,GyrY,GyrZ,Mag(1),Mag(2),Mag(3)
2020-05-11 13:23:06.857857,-0.000319,-1.02047,0.059915,-0.000307,1.4E-05,-0.001069,0.660845,-5.93724,-3.08901
2020-05-11 13:23:06.910705,-0.001125,-1.024477,0.059915,-0.000592,-0.000281,-0.001771,1.105521,-10.626044,-5.499202
2020-05-11 13:23:06.963451,-0.00187,-1.023121,0.060584,-0.000425,-0.000124,-0.000679,1.444462,-14.480766,-7.450599
2020-05-11 13:23:07.016331,0.001107,-1.021025,0.058454,-0.000854,0.000323,-0.002428,1.682015,-17.619432,-8.976851
2020-05-11 13:23:07.069120,-0.000133,-1.021641,0.060037,-0.000235,0.000312,-0.002495,2.006457,-20.124268,-10.224002
2020-05-11 13:23:07.121980,5.3E-05,-1.022381,0.061436,-0.002441,-0.002208,-0.001969,2.103611,-22.20742,-11.105502
2020-05-11 13:23:07.174719,-0.000319,-1.022504,0.060524,-0.002212,0.001113,-0.001903,2.310134,-24.056906,-12.034428
2020-05-11 13:23:07.227513,-0.000381,-1.022998,0.058272,-0.004796,-0.001433,-0.00243,2.318553,-25.365728,-12.78919
2020-05-11 13:23:07.280206,-0.000815,-1.023737,0.059732,-0.051433,-5.7E-05,-0.001168,2.538087,-26.351799,-13.25644
2020-05-11 13:23:07.332962,-0.000381,-1.021087,0.066914,-0.085297,0.001126,-0.000686,2.411315,-27.116259,-13.609901
2020-05-11 13:23:07.385744,-0.000381,-1.02232,0.072513,-0.105778,0.00035,0.00037,2.433097,-27.636345,-13.825844
2020-05-11 13:23:07.438509,-0.001498,-1.022135,0.077564,-0.165879,0.000339,-0.000676,2.316123,-28.089006,-13.771966
2020-05-11 13:23:07.491194,-0.000257,-1.017203,0.09716,-0.217803,0.00156,-0.000523,2.424144,-28.646297,-14.086244
2020-05-11 13:23:07.543995,-0.000257,-1.015045,0.108297,-0.153854,0.000623,0.00038,2.42656,-29.049438,-14.020964
2020-05-11 13:23:07.596810,-0.004971,-1.026018,0.08158,0.714338,-0.000752,-0.007408,2.350093,-29.33536,-14.108205
2020-05-11 13:23:07.649537,-0.00311,-1.041368,0.180658,0.240001,0.002455,-0.010768,2.26652,-29.411627,-14.416251
2020-05-11 13:23:07.702299,-0.029529,-1.033292,0.046404,0.037499,-0.009457,-0.008325,2.278061,-29.423849,-14.441868
2020-05-11 13:23:07.755039,-0.049189,-1.011655,0.031068,0.026358,0.029094,-0.003914,2.393694,-29.482418,-14.564055
2020-05-11 13:23:07.807770,-0.00435,-1.036498,0.038797,0.084849,0.00191,-0.000554,2.603801,-29.328012,-14.897153
2020-05-11 13:23:07.860644,-0.041933,-1.023059,0.050969,0.068734,0.004947,-0.00275,2.827886,-29.265476,-15.213024
2020-05-11 13:23:07.913418,0.019102,-1.018436,0.09929,0.000775,0.008001,0.001221,3.180754,-29.123966,-15.404705
2020-05-11 13:23:07.966305,-0.042367,-1.022936,0.017862,0.217785,-0.030484,-0.003971,3.379048,-28.99856,-15.697515
2020-05-11 13:23:08.019035,0.011429,-1.021518,0.038189,-0.110249,-0.005438,-0.007026,3.996884,-28.757963,-15.708038
2020-05-11 13:23:08.071771,-0.084662,-1.029717,0.128807,0.002608,0.018996,-0.000459,4.591952,-28.900919,-15.745512
2020-05-11 13:23:08.124531,0.118174,-1.027374,-0.047097,0.012534,-0.014601,-0.005346,5.107207,-29.094568,-15.816169
2020-05-11 13:23:08.177265,-0.031142,-0.973805,0.247967,0.013451,0.024189,0.006871,5.749011,-29.298277,-15.625724
2020-05-11 13:23:08.230011,-0.037653,-1.042724,0.062958,0.001997,-0.02239,-0.007179,6.676854,-29.839369,-15.749393
2020-05-11 13:23:08.282838,0.035737,-1.023367,0.106837,0.01849,-0.021168,0.001221,7.413528,-30.644268,-15.505476
2020-05-11 13:23:08.335629,0.019225,-1.062944,0.062045,-0.00793,0.056565,-0.000459,7.974868,-31.312582,-15.112766
2020-05-11 13:23:08.388355,-0.004784,-1.002655,0.154367,0.012076,0.001281,0.000457,8.099139,-32.487606,-15.033947
2020-05-11 13:23:08.441376,0.082756,-1.008881,0.09077,0.027348,0.026785,-0.003819,8.288157,-33.220264,-14.514724
2020-05-11 13:23:08.494119,0.01149,-1.019361,0.082311,0.004288,0.010292,-0.001223,8.327371,-34.300392,-14.273677
2020-05-11 13:23:08.546999,-0.032692,-1.026696,0.078233,0.005178,-0.004224,-0.000739,8.067542,-35.499928,-14.513762
2020-05-11 13:23:08.599915,-0.027049,-1.0156,0.206218,0.037096,0.023265,-0.006237,7.630079,-36.551041,-14.261285
2020-05-11 13:23:08.652740,-0.036227,-1.013936,0.080424,0.016937,-0.012317,-0.001044,7.190508,-37.727364,-14.849607
2020-05-11 13:23:08.705601,0.044883,-1.00586,0.066001,0.005178,-0.010179,0.002315,6.418852,-38.522049,-15.038427
2020-05-11 13:23:08.758428,0.039726,-1.02158,0.192038,0.000291,0.002954,-0.000281,5.874327,-39.096809,-15.36091
2020-05-11 13:23:08.811237,0.025486,-0.997785,0.104037,-0.009024,0.023571,-0.003335,5.388307,-39.544422,-15.647952
2020-05-11 13:23:08.864033,0.002844,-0.988661,0.075921,0.014601,-0.028441,-0.000862,4.96029,-39.933006,-15.697443
2020-05-11 13:23:08.917079,0.072198,-1.003209,0.080242,0.031247,-0.026608,-0.003764,4.489078,-40.182884,-15.978194
2020-05-11 13:23:08.969952,0.077109,-1.032183,0.033198,0.019488,-0.014544,-0.003,4.106507,-40.37059,-16.072046
2020-05-11 13:23:09.022700,-0.009622,-1.013134,0.092413,0.024222,-0.004923,-0.005138,4.052451,-40.728115,-16.295311
2020-05-11 13:23:09.075565,0.049855,-1.022011,0.037945,0.005896,0.003782,-0.001626,4.126806,-40.770184,-16.186275
2020-05-11 13:23:09.128453,0.010938,-1.019545,0.071113,0.013532,-0.028136,-9.8E-05,4.28709,-40.944107,-16.343111
2020-05-11 13:23:09.181403,0.029107,-1.017573,0.09077,0.012048,0.035691,-0.006295,4.420918,-41.052753,-16.462767
2020-05-11 13:23:09.234271,0.047583,-1.020039,0.003169,0.002427,0.017823,-0.004005,4.343179,-41.517796,-16.854856
2020-05-11 13:23:09.287131,0.056545,-1.000127,-0.029716,-0.00415,-0.001815,-0.000919,4.247389,-41.871532,-17.261505
2020-05-11 13:23:09.340037,-0.003172,-1.016093,0.033137,0.004708,-0.018614,-0.004126,4.075556,-42.203312,-17.194578
2020-05-11 13:23:09.392942,-0.028537,-1.0246,0.05602,0.020642,-0.016517,-0.00635,4.05009,-42.730984,-17.649504
2020-05-11 13:23:09.445745,0.092761,-1.0156,0.031007,0.017435,-0.005063,-0.005281,4.035317,-42.903072,-17.528221
2020-05-11 13:23:09.498522,-0.036723,-1.027313,0.071539,0.028431,-0.036065,-0.003601,3.508299,-43.2603,-17.936756
2020-05-11 13:23:09.551372,0.055072,-1.030149,0.097891,0.015755,-0.009339,-0.000547,3.069885,-43.613167,-17.923637
2020-05-11 13:23:09.604297,0.040095,-1.027621,0.025773,0.027973,-0.029498,-0.002685,2.719153,-43.627113,-17.965443
2020-05-11 13:23:09.657320,0.031256,-0.996983,0.09004,0.018351,0.030214,0.014419,2.371368,-43.656567,-17.91172
2020-05-11 13:23:09.710320,0.007991,-1.02232,0.076408,-0.036439,0.001749,-0.005991,2.137939,-43.57645,-17.653734
2020-05-11 13:23:09.763134,0.008667,-1.022011,0.064175,0.019692,0.000362,-0.008006,2.253597,-43.518456,-17.737898
2020-05-11 13:23:09.815982,-0.009498,-1.030827,0.077138,0.092997,0.003007,-0.011725,2.094123,-43.490356,-17.575691
2020-05-11 13:23:09.868868,-0.003234,-1.042724,-0.017361,-0.038492,-0.00356,-0.002256,2.084143,-43.419086,-17.637691
2020-05-11 13:23:09.921762,-0.000257,-1.029902,0.051456,-0.355837,-0.010432,0.01103,1.90816,-43.453552,-17.18173
2020-05-11 13:23:09.974733,-0.032816,-1.001545,-0.004401,-0.587355,-0.340146,0.003394,1.901773,-43.578705,-16.729795
2020-05-11 13:23:10.027698,0.19969,-1.003949,0.163496,0.400567,0.752386,-0.065633,1.913464,-43.642235,-16.371153
2020-05-11 13:23:10.080578,0.014928,-1.018929,0.159175,0.334594,0.017057,0.000798,1.956416,-43.601578,-16.674061
2020-05-11 13:23:10.133442,-0.020847,-1.032861,0.045248,-0.703266,-0.50676,0.029509,2.561978,-43.587349,-17.084908
2020-05-11 13:23:10.186274,0.017138,-1.003394,0.094543,-1.200969,-0.381074,0.047529,2.531228,-43.624756,-16.629093
2020-05-11 13:23:10.239145,-0.016258,-1.005059,0.249123,-0.853386,-0.898935,0.124804,2.697028,-43.801052,-16.203424
2020-05-11 13:23:10.291877,-0.016506,-0.977318,0.200924,-0.777945,-0.069686,0.019124,2.773667,-43.875004,-15.229486
2020-05-11 13:23:10.345134,0.01634,-0.984593,0.27937,-0.045364,0.088834,-0.022262,3.064579,-43.879276,-14.534595
2020-05-11 13:23:10.398178,0.000487,-0.993223,0.256305,-0.226944,-0.126191,0.029203,3.246909,-43.870495,-14.054225
2020-05-11 13:23:10.451086,0.006627,-0.996983,0.133006,-0.386838,-0.179031,0.054402,3.599972,-43.851273,-13.199235
2020-05-11 13:23:10.503864,0.007867,-0.993593,0.217416,0.006254,0.05829,-0.03173,3.848823,-43.860291,-12.840662
2020-05-11 13:23:10.556793,0.020391,-1.004011,0.34035,0.419657,0.479329,-0.144435,4.115104,-43.562565,-12.690363
2020-05-11 13:23:10.609543,-0.002614,-0.995319,0.25667,-0.041088,-0.150931,0.026302,4.294528,-43.379272,-12.695062
2020-05-11 13:23:10.662465,-0.021839,-0.999018,0.272797,0.650411,0.56256,-0.133287,4.561268,-43.171654,-12.536111
2020-05-11 13:23:10.715348,0.027082,-0.999819,0.414354,0.707069,0.406789,-0.100147,4.696259,-42.926273,-12.865118
2020-05-11 13:23:10.768169,-0.000939,-0.999264,0.211635,-0.200066,-0.197509,0.042184,4.709053,-42.42503,-12.948181
2020-05-11 13:23:10.820901,-0.033312,-0.997107,0.16806,0.128121,0.12518,-0.031425,4.803288,-42.243591,-13.14538
2020-05-11 13:23:10.873708,-0.013281,-0.994887,0.162765,0.247698,0.028205,-0.011572,4.794675,-41.909378,-12.826632
2020-05-11 13:23:10.926521,0.107309,-0.985826,0.273284,0.607956,0.759564,-0.13405,4.838186,-41.690796,-13.254434
2020-05-11 13:23:10.979358,0.003588,-1.02984,0.184918,0.695157,0.249949,-0.033868,4.844994,-40.924351,-13.965676
2020-05-11 13:23:11.032571,0.001231,-1.019669,0.095274,0.033743,-0.077933,0.005227,4.99044,-40.305096,-14.430072
2020-05-11 13:23:11.085557,0.010508,-1.026018,0.093996,0.230594,0.004382,-0.008518,4.888398,-40.023148,-14.935242
2020-05-11 13:23:11.138356,0.020882,-1.016032,0.097769,0.158985,-0.040643,-0.000852,4.879563,-39.626823,-15.365528
2020-05-11 13:23:11.191347,0.00303,-1.028607,0.076773,0.148371,-0.068666,-0.000824,4.738096,-39.456135,-15.904427
2020-05-11 13:23:11.244082,0.003216,-1.013134,0.044457,0.349804,0.144374,-0.013805,4.496122,-39.380573,-16.399467
2020-05-11 13:23:11.296877,0.022539,-1.016155,0.082554,-0.009384,-0.239708,0.005896,4.168143,-39.448196,-16.929155
2020-05-11 13:23:11.350015,-0.00956,-1.017203,0.057846,-0.012319,0.019542,-0.00242,4.000959,-39.483997,-17.503992
2020-05-11 13:23:11.403017,0.013946,-1.026943,0.102394,0.069689,0.143242,0.007506,3.604013,-39.604122,-17.795341
2020-05-11 13:23:11.455754,0.021434,-1.018806,0.157714,0.074423,0.12293,0.014073,3.404055,-39.761208,-18.060381
2020-05-11 13:23:11.508656,0.013332,-1.023737,0.113835,0.068842,-0.004435,0.013309,3.17689,-39.880779,-18.414783
2020-05-11 13:23:11.561413,0.009956,-1.04143,0.08724,0.183074,0.291224,0.036063,2.894357,-40.013027,-18.727362
2020-05-11 13:23:11.617315,0.001975,-1.022073,0.070869,0.030675,0.032767,0.008141,2.864331,-39.984653,-19.04425
2020-05-11 13:23:11.670371,0.046417,-1.008819,0.080972,0.036886,-0.045386,0.005508,2.47631,-39.900967,-19.382021
2020-05-11 13:23:11.723085,0.008912,-1.028916,0.004319,0.045743,-0.028587,0.01803,2.289093,-39.876709,-19.835287
2020-05-11 13:23:11.775792,0.003526,-1.023737,0.024678,-0.046571,-0.059964,-0.015639,2.25132,-39.765823,-19.921875
2020-05-11 13:23:11.828511,-0.0268,-1.023059,0.059063,0.037061,0.022934,-0.004341,2.075501,-39.646618,-20.470556
2020-05-11 13:23:11.881156,0.001169,-1.018436,0.027356,-0.036806,0.050661,-0.003901,1.901246,-39.606144,-20.810713
2020-05-11 13:23:11.934053,0.041691,-1.007216,0.079268,-0.011761,-0.068458,0.018548,2.013842,-39.43959,-21.27751
2020-05-11 13:23:11.986840,0.050407,-1.028484,0.066427,-0.070714,0.008228,0.015125,2.283119,-39.385632,-21.813656
2020-05-11 13:23:12.039686,-0.026738,-1.024415,-0.0388,-0.20037,-0.188929,-0.053597,2.54334,-39.232689,-22.044996
2020-05-11 13:23:12.092648,0.034509,-1.013196,0.129659,0.044587,-0.001852,0.010086,2.605917,-39.049347,-22.23588
2020-05-11 13:23:12.145414,0.00613,-1.029902,0.063201,0.225403,-0.159913,-0.002132,2.616779,-38.798992,-22.394398
2020-05-11 13:23:12.198174,0.052617,-1.016648,0.121686,0.00656,0.037244,0.009933,2.675869,-38.793869,-22.614189
2020-05-11 13:23:12.251058,0.016033,-1.042662,0.062349,0.429584,0.375968,-0.005186,2.80154,-38.515327,-22.859755
2020-05-11 13:23:12.303856,0.065016,-1.025402,0.12619,0.129955,-0.081722,-0.012211,2.862877,-38.298592,-23.137562
2020-05-11 13:23:12.356680,-0.001312,-1.015045,0.043057,-0.269856,-0.137769,-0.011447,2.682347,-38.045921,-23.310415
2020-05-11 13:23:12.409435,-0.035669,-1.016648,0.051212,-0.004583,0.005887,0.004435,2.644323,-38.05724,-23.777021
2020-05-11 13:23:12.462205,0.026468,-1.044265,-0.077256,-0.122327,-0.199211,0.028411,2.569104,-37.956516,-23.659273
2020-05-11 13:23:12.514937,-0.003048,-0.986319,0.023887,0.043828,-0.442641,0.042003,2.581728,-37.882038,-23.611563
2020-05-11 13:23:12.567724,0.043287,-1.023121,0.084806,0.179746,0.126074,-0.067494,2.597428,-37.602898,-23.852325
2020-05-11 13:23:12.620473,0.024749,-1.023491,0.119252,0.271223,-0.007858,0.009169,2.598788,-37.190525,-23.896753
2020-05-11 13:23:12.673369,5.3E-05,-1.014737,0.046952,0.384844,0.20228,-0.084904,2.566275,-36.915516,-24.243187
2020-05-11 13:23:12.726088,0.029107,-1.019792,0.020235,0.182647,0.301545,-0.029774,2.338665,-36.652817,-24.279175
2020-05-11 13:23:12.778859,0.014805,-1.041676,0.040319,0.181273,0.404171,-0.021527,2.145378,-36.143818,-24.540407
2020-05-11 13:23:12.831553,0.020882,-1.027683,0.071174,0.162794,-0.044357,-0.02,2.069147,-35.907383,-24.909197
2020-05-11 13:23:12.884545,-0.009436,-1.013751,0.036667,-0.430661,-0.564814,-0.023665,1.812163,-35.889,-25.303017
2020-05-11 13:23:12.937402,-0.022335,-1.003703,-0.043887,-0.398438,-0.32001,-0.033439,1.785776,-36.093849,-25.205488
2020-05-11 13:23:12.990214,0.015542,-1.033909,0.057907,0.597883,0.483583,0.022303,1.613466,-35.922298,-25.168142
2020-05-11 13:23:13.042895,0.015664,-1.039395,-0.005007,-0.214873,-0.113079,-0.006866,1.570818,-35.876537,-25.446251
2020-05-11 13:23:13.095731,0.003526,-1.003086,0.042509,-0.27764,-0.238001,-0.026872,1.4975,-35.870422,-25.372375
2020-05-11 13:23:13.148435,0.00551,-1.017388,0.065636,-0.260077,-0.172944,-0.003201,1.606845,-36.036297,-25.356857
2020-05-11 13:23:13.201255,0.007309,-1.01745,0.047196,-0.038384,-0.02723,-0.002799,1.576721,-36.108009,-24.879559
2020-05-11 13:23:13.253943,0.002658,-1.022566,0.067705,-0.116084,-0.062343,0.009547,1.552622,-36.336143,-25.049768
2020-05-11 13:23:13.306714,0.017813,-1.009004,0.027295,-0.13052,-0.048012,0.008343,1.566943,-36.42107,-24.700714
2020-05-11 13:23:13.359412,0.021005,-1.041183,0.103185,-0.285222,-0.386737,0.013841,1.5672,-36.543903,-24.459242
2020-05-11 13:23:13.412234,0.004704,-1.027559,0.030764,-0.062409,0.00101,-0.001278,1.640205,-36.770245,-24.234104
2020-05-11 13:23:13.464985,0.018243,-1.013443,0.092961,-0.177252,0.007882,0.00086,1.743409,-37.000107,-23.838985
2020-05-11 13:23:13.517750,0.008483,-1.019114,0.091987,-0.004526,0.007767,0.001717,1.624373,-37.080318,-23.525795
2020-05-11 13:23:13.570442,0.006379,-1.015908,0.078659,0.083315,0.007065,-0.017679,1.618744,-37.13229,-23.458292
2020-05-11 13:23:13.623332,0.0776,-1.029779,0.086875,0.014287,0.005233,-0.005004,1.51904,-37.076286,-23.63092
2020-05-11 13:23:13.676095,0.053538,-1.020717,0.059306,-0.044945,0.017606,0.011107,1.596077,-37.281532,-23.391304
2020-05-11 13:23:13.728937,0.105774,-1.005552,0.119008,-0.16498,0.004778,0.011718,1.724907,-37.348148,-23.289682
2020-05-11 13:23:13.781670,0.019654,-1.039457,0.121625,-0.151999,0.00264,0.015688,1.816771,-37.407539,-22.923645
2020-05-11 13:23:13.835000,0.042243,-1.023244,0.125764,0.053101,-0.00601,-0.004912,1.705462,-37.631916,-22.61338
2020-05-11 13:23:13.887967,-0.02494,-1.005675,0.186257,0.081964,0.015675,-0.008271,1.918815,-37.701641,-22.710926
2020-05-11 13:23:13.940878,0.078152,-1.06954,0.134406,0.281564,0.005444,-0.007355,2.111897,-37.525665,-22.707609
2020-05-11 13:23:13.993609,0.021741,-1.022443,0.109636,0.00133,0.009567,-0.00369,2.215963,-37.317799,-22.405685
2020-05-11 13:23:14.046475,0.10645,-1.039519,0.110123,0.027292,0.00132,-0.0127,2.170415,-37.230789,-22.20192
2020-05-11 13:23:14.099305,0.134317,-1.002531,0.031738,-0.0819,-0.008454,-0.009188,2.094778,-37.283157,-22.187088
2020-05-11 13:23:14.152144,-0.005777,-1.006107,0.047013,0.112049,0.016745,-0.002468,2.443067,-37.489719,-22.332121
2020-05-11 13:23:14.204986,0.052371,-1.046238,0.170434,0.117547,0.015217,-0.003843,2.553699,-37.447613,-22.221516
2020-05-11 13:23:14.257745,-0.052103,-1.003579,0.14043,0.005453,-0.006927,-0.00033,2.703804,-37.133381,-22.089449
2020-05-11 13:23:14.310547,-0.071887,-1.013689,0.169764,0.022987,-0.001381,-0.008291,2.667089,-37.028366,-21.823992
2020-05-11 13:23:14.363392,0.006999,-1.028854,0.107202,0.035051,0.010531,-0.011803,2.492116,-36.96265,-21.928328
2020-05-11 13:23:14.416183,0.069558,-1.007278,0.123938,0.042382,0.004117,-0.005695,2.497738,-36.75761,-21.788071
2020-05-11 13:23:14.469055,0.037762,-1.058814,0.136049,-0.008778,0.000299,-4.4E-05,2.860636,-36.654568,-21.585794
2020-05-11 13:23:14.521785,0.014375,-1.049012,0.107993,0.01233,-0.005469,-0.004472,2.686154,-36.456253,-21.409447
2020-05-11 13:23:14.574666,-0.041312,-1.015169,0.014819,0.023936,-0.001956,-0.01058,2.686568,-36.218319,-21.355534
2020-05-11 13:23:14.627486,-0.014893,-1.000929,0.178771,-0.018366,0.00568,0.003317,2.4965,-36.131649,-21.199087
2020-05-11 13:23:14.680340,0.064218,-1.040998,0.076225,0.034015,0.00965,-0.013482,2.770045,-36.001328,-21.233734
2020-05-11 13:23:14.733272,0.002968,-0.999141,0.039284,0.001029,-0.003025,-0.008442,2.585681,-35.878773,-21.084215
2020-05-11 13:23:14.786101,0.00272,-1.017265,0.064358,0.005128,0.018924,-0.01008,2.42139,-35.902706,-20.787363
2020-05-11 13:23:14.838930,0.000363,-0.981079,0.147673,-0.082684,-0.000929,-0.009164,2.334757,-35.757187,-20.334871
2020-05-11 13:23:14.891789,0.03856,-1.020655,0.071478,0.068505,0.002431,0.00565,2.136651,-35.59808,-20.103628
2020-05-11 13:23:14.944796,-0.063266,-1.004073,0.061802,0.071865,-0.009786,-0.0084,1.770966,-35.611065,-20.061005
2020-05-11 13:23:14.997652,0.093927,-1.038779,0.051638,0.002532,0.016481,-0.00672,1.618418,-35.377502,-20.067581
2020-05-11 13:23:15.050562,0.076802,-1.018621,-0.038618,0.017345,0.002126,-0.009622,1.36758,-35.056477,-19.666069
2020-05-11 13:23:15.103441,-0.027731,-1.002963,0.026443,-0.11674,-0.004136,0.000457,1.189309,-34.952126,-19.542437
2020-05-11 13:23:15.156247,-0.0317,-1.015354,0.079572,-0.00709,0.010525,-0.013134,0.878693,-34.972324,-19.193655
2020-05-11 13:23:15.209096,-0.007017,-1.027189,0.154428,-0.053668,-0.000165,-0.015272,0.602199,-35.147053,-19.138355
2020-05-11 13:23:15.261933,0.039235,-1.062882,0.205975,0.132493,0.011747,0.000916,0.442605,-35.140465,-18.940123
2020-05-11 13:23:15.314817,-0.064507,-1.071081,0.084867,0.16716,0.024269,-0.007178,0.186129,-35.080307,-18.851269
2020-05-11 13:23:15.367782,0.041016,-1.023183,0.082128,0.022537,0.000598,-0.016799,-0.091852,-34.940697,-18.820862
2020-05-11 13:23:15.420567,-0.049871,-1.010237,0.01987,0.022385,0.002126,-0.011454,-0.258236,-35.085159,-18.930191
2020-05-11 13:23:15.473460,-0.03356,-1.014984,0.062228,-0.023092,0.008403,0.003985,-0.654544,-35.03606,-19.136782
2020-05-11 13:23:15.526331,-0.027173,-1.022443,0.102942,-0.021584,0.002217,-0.001167,-0.72519,-35.20414,-19.238132
2020-05-11 13:23:15.579448,0.052003,-1.022196,0.146455,-0.067094,0.00069,-0.006817,-0.932906,-35.112949,-19.397663
2020-05-11 13:23:15.632314,-0.123733,-1.036621,0.105741,0.083332,0.014893,-0.009414,-1.11028,-35.143677,-19.066214
2020-05-11 13:23:15.685102,-0.132787,-1.012641,0.098377,-0.015403,0.001405,-0.001423,-1.375379,-35.192654,-18.885315
2020-05-11 13:23:15.737894,-0.162617,-1.03471,0.078233,-0.052386,0.016269,-0.001523,-1.593058,-35.115959,-18.784178
2020-05-11 13:23:15.790691,0.02567,-0.996059,0.09783,-0.021843,0.001455,-0.002134,-1.806401,-35.225368,-18.555086
2020-05-11 13:23:15.843556,-0.000567,-1.040505,0.062593,0.175467,0.00451,-0.004272,-2.005076,-35.367783,-18.761154
2020-05-11 13:23:15.896460,0.004022,-1.01973,0.0929,0.021697,0.004655,-0.005754,-2.152815,-35.371937,-18.899858
2020-05-11 13:23:15.949325,0.001293,-1.017758,0.080302,0.00813,0.004942,-0.00069,-2.338207,-35.631409,-19.121233
2020-05-11 13:23:16.002161,0.002906,-1.019176,0.074338,0.013912,0.004778,-0.001996,-2.49772,-35.540146,-19.243126
2020-05-11 13:23:16.055093,0.012841,-1.025278,0.111279,0.005919,0.002404,-0.001044,-2.513331,-35.692791,-19.416185
2020-05-11 13:23:16.107868,0.003216,-1.013443,0.091987,0.022699,0.002619,-0.006766,-2.62662,-35.857601,-19.45875
2020-05-11 13:23:16.160729,0.003588,-1.011408,0.071843,0.051172,0.005337,-0.00595,-2.762051,-35.910164,-19.577063
2020-05-11 13:23:16.213483,0.000115,-1.018436,0.158931,0.069193,-0.047656,0.000617,-2.931995,-35.897324,-19.572924
2020-05-11 13:23:16.266321,-0.022149,-1.008388,0.073304,0.014215,0.033742,-0.003507,-2.765551,-35.868755,-19.83111
2020-05-11 13:23:16.319230,0.002968,-1.004689,0.209018,0.070109,0.255028,0.007641,-2.906796,-35.650742,-19.793594
2020-05-11 13:23:16.372186,0.019654,-1.025278,0.026565,-0.076499,0.232273,0.015583,-2.734191,-35.439735,-19.580534
2020-05-11 13:23:16.425296,-0.002614,-1.019484,0.116513,0.117451,-0.266651,-0.025651,-2.920907,-35.222141,-19.032368
2020-05-11 13:23:16.478096,-0.067421,-1.01073,0.10562,-0.016634,-0.253059,0.01207,-2.868681,-35.12735,-18.98608
2020-05-11 13:23:16.531054,-0.025932,-1.018867,0.007045,0.0443,-0.304677,-0.004423,-2.843699,-35.027122,-18.943239
2020-05-11 13:23:16.584543,0.025117,-1.012148,0.109636,-0.029462,0.200355,0.005045,-2.829314,-34.965237,-18.609697
2020-05-11 13:23:16.637266,-0.009126,-1.008141,0.091257,0.051172,-0.203885,-0.016793,-2.901806,-34.690075,-18.185965
2020-05-11 13:23:16.690050,0.04298,-1.015539,0.077016,0.012535,-0.007186,-0.004729,-2.9318,-34.555325,-18.31477
2020-05-11 13:23:16.742753,0.035307,-1.024354,0.068618,0.065558,-0.022152,-0.017562,-3.095795,-34.47802,-18.446869
2020-05-11 13:23:16.795539,0.009649,-1.018374,0.038919,0.032223,0.109973,-0.016386,-3.014191,-34.263706,-18.532209
2020-05-11 13:23:16.848312,0.012227,-1.020717,0.087484,0.008119,-0.048847,-0.005506,-3.016107,-34.043465,-18.446489
2020-05-11 13:23:16.901120,0.008483,-1.004566,0.130024,-0.001452,0.01936,-0.005175,-3.247241,-33.678211,-18.369196
2020-05-11 13:23:16.953807,0.022539,-1.016402,0.125824,0.019117,-0.106619,0.000607,-3.331347,-33.404305,-18.191141
2020-05-11 13:23:17.006568,0.014866,-1.017881,-0.060057,0.008579,-0.060346,0.000607,-3.409832,-33.105892,-18.20269
2020-05-11 13:23:17.059279,-0.035731,-1.023121,0.034294,-0.02456,0.055718,0.003204,-3.707821,-32.867165,-18.055031
2020-05-11 13:23:17.112050,-0.076662,-1.006168,0.042753,-0.008241,-0.067488,0.006787,-3.649411,-32.432232,-18.358204
2020-05-11 13:23:17.164803,-0.05384,-1.00586,0.102637,0.008253,0.106304,-0.015356,-3.826684,-32.017197,-18.577497
2020-05-11 13:23:17.217629,0.052801,-1.06954,-0.019844,0.011002,-0.158659,0.004191,-3.929302,-31.666874,-18.471096
2020-05-11 13:23:17.270305,0.024258,-1.01597,-0.095727,-0.027788,-0.252274,0.020379,-4.089796,-31.374418,-18.40341
2020-05-11 13:23:17.323510,-0.035607,-1.022628,0.109393,-0.01496,-0.466077,0.019463,-4.089392,-30.933096,-18.076141
2020-05-11 13:23:17.376327,-0.043483,-1.019299,-0.001737,-0.010073,-0.414459,0.017783,-4.285069,-30.738605,-18.377998
2020-05-11 13:23:17.429133,0.028064,-1.030703,0.266285,-0.005492,1.089491,-0.050787,-4.14481,-30.491531,-18.616577
2020-05-11 13:23:17.481942,-0.001436,-1.042662,-0.130065,0.020623,-0.743257,0.025724,-3.965403,-30.202391,-18.464588
2020-05-11 13:23:17.534703,0.05096,-1.031813,0.144021,0.011154,0.191214,-0.013066,-3.961877,-30.080856,-18.73815
2020-05-11 13:23:17.587530,0.065569,-1.020224,0.0929,-0.029316,0.42884,-0.010928,-3.667856,-30.123901,-18.971527
2020-05-11 13:23:17.640511,0.005572,-1.015908,0.089614,-0.002896,-0.048398,0.000831,-3.44384,-30.072954,-19.265732
2020-05-11 13:23:17.693282,-0.007327,-0.991559,0.026321,-0.088264,0.217634,-0.009706,-3.292627,-30.080986,-19.51853
2020-05-11 13:23:17.746211,-0.009746,-1.022813,0.058515,0.009897,0.022747,-0.008201,-3.037256,-30.209387,-19.860233
2020-05-11 13:23:17.799227,-0.001932,-1.025032,0.096065,-0.047525,0.207992,-0.007743,-2.77696,-30.403589,-19.944736
2020-05-11 13:23:17.852104,-0.049064,-1.027806,0.116148,0.025321,-0.334762,0.005543,-2.372722,-30.961472,-20.009434
2020-05-11 13:23:17.905053,0.049609,-1.002655,0.145847,0.001039,0.475551,-0.025611,-2.026933,-31.340691,-20.090246
2020-05-11 13:23:17.957908,-0.016692,-1.027683,0.00444,-0.029046,-0.071326,0.011652,-1.414301,-31.491596,-19.91955
2020-05-11 13:23:18.010692,0.001913,-1.064423,-0.026506,0.213009,-0.768171,0.002031,-0.756195,-31.691605,-19.495344
2020-05-11 13:23:18.063584,0.065078,-0.970229,0.166843,-0.160993,0.796866,-0.015837,-0.168111,-31.985785,-18.630079
2020-05-11 13:23:18.116380,0.006751,-1.054005,-0.046249,0.21133,-0.219461,-0.011714,0.279956,-32.361401,-18.161594
2020-05-11 13:23:18.169203,0.077722,-1.017943,0.284726,0.059071,0.006865,-0.006369,0.56001,-32.454533,-17.278339
2020-05-11 13:23:18.221978,-0.030025,-0.993223,0.109393,-0.151066,0.006865,0.003558,1.086454,-32.407066,-16.170773
2020-05-11 13:23:18.274889,-0.001125,-1.085259,0.064175,-0.024923,-0.04735,0.004016,1.328408,-32.100746,-15.915217
2020-05-11 13:23:18.328613,0.03457,-1.022258,0.206218,0.039218,0.119722,-0.014463,1.589172,-31.782503,-15.571308
2020-05-11 13:23:18.381389,-0.000939,-1.057149,0.100081,-0.025839,-0.050251,-0.00026,1.814583,-31.613293,-15.421119
2020-05-11 13:23:18.434196,0.028064,-0.998401,-0.021116,0.052963,-0.126151,0.009972,1.910911,-31.276665,-15.199274
2020-05-11 13:23:18.487043,-0.029963,-1.022689,-0.015726,-0.193521,-0.05132,-0.008201,1.976774,-30.903683,-15.045042
2020-05-11 13:23:18.539811,-0.026862,-1.114787,0.019688,0.37046,-0.244812,0.001572,2.018265,-30.64189,-15.090178
2020-05-11 13:23:18.592622,-0.014459,-1.039703,0.003956,0.117409,-1.659729,0.016386,2.129857,-30.426355,-15.152435
2020-05-11 13:23:18.645451,-0.013405,-1.030518,0.020174,0.165209,-0.416465,0.007376,2.409531,-30.211237,-15.312652
2020-05-11 13:23:18.698247,-0.01632,-0.999634,0.031251,0.120729,0.01505,0.006539,2.59407,-30.069637,-15.327509
2020-05-11 13:23:18.751044,-0.005839,-1.018374,0.051638,0.023848,0.009234,-0.005341,2.769701,-29.773394,-15.246418
2020-05-11 13:23:18.803842,-0.014211,-1.032429,0.041353,0.100409,0.008336,-0.008116,3.005406,-29.67667,-15.297767
2020-05-11 13:23:18.856697,-0.278961,-1.288442,0.135136,0.124386,0.192512,-0.001243,3.22757,-29.507811,-15.388239
2020-05-11 13:23:18.909466,-0.026118,-0.935893,0.165504,0.287181,-0.041297,-0.088139,3.119701,-29.244648,-15.013165
2020-05-11 13:23:18.962192,0.005386,-1.117993,0.07586,0.280767,-0.000827,-0.100967,3.279806,-29.040216,-14.965888
2020-05-11 13:23:19.015024,-0.030645,-1.011655,0.062897,-0.100718,-0.008768,0.026398,3.12789,-28.815683,-15.183752
2020-05-11 13:23:19.068397,-0.004412,-1.019669,0.070809,0.02384,0.003186,-0.008731,3.067957,-28.678749,-14.991947
2020-05-11 13:23:19.121236,-0.005963,-1.037484,0.060767,0.013007,-0.005482,-0.012426,2.969611,-28.733868,-15.146489
2020-05-11 13:23:19.173936,-0.033746,-1.022813,0.045613,-0.051939,-0.003676,0.010428,3.042134,-28.784061,-15.20039
2020-05-11 13:23:19.226745,-0.009808,-1.006538,0.059489,-0.015221,0.013572,0.017609,2.999353,-28.860809,-15.272566
2020-05-11 13:23:19.279429,-0.013157,-1.021518,0.055655,-0.005708,0.013119,0.000193,2.959527,-28.934406,-15.440717
2020-05-11 13:23:19.332245,-0.080569,-1.044697,0.065149,-0.044346,0.011745,0.025238,2.910867,-28.95669,-15.421245
2020-05-11 13:23:19.385001,-0.099918,-1.027128,0.071174,-0.02279,0.005153,0.015244,3.000739,-29.053801,-15.620676
2020-05-11 13:23:19.437858,-0.066863,-1.012888,0.056872,-0.028821,0.02122,0.022117,2.977437,-29.204676,-15.713394
2020-05-11 13:23:19.490579,-0.058057,-1.029902,0.091318,-0.034209,0.004569,0.005879,3.126794,-29.209499,-15.595803
2020-05-11 13:23:19.543431,-0.097314,-1.026758,0.050117,0.006414,0.032669,0.019166,3.257481,-29.231653,-15.626668
2020-05-11 13:23:19.596181,-0.043483,-1.019607,0.09363,-0.00901,0.001973,0.011835,3.56923,-29.072512,-15.831503
2020-05-11 13:23:19.649035,-0.01204,-0.991497,0.143534,-0.014355,0.008082,0.004505,4.08183,-29.067175,-15.739684
2020-05-11 13:23:19.701751,-0.065127,-0.988846,0.092535,-0.134543,-0.01223,0.04696,4.732709,-29.148289,-15.47156
2020-05-11 13:23:19.754587,0.032974,-1.069047,-0.008338,0.043982,0.011594,-0.006491,5.471812,-29.219278,-15.062389
2020-05-11 13:23:19.807331,-0.015265,-1.053512,-0.03123,0.070708,-0.007495,-0.017334,6.152695,-29.959133,-14.99074
2020-05-11 13:23:19.860102,-0.04094,-0.995874,0.066305,-0.014814,0.07207,0.010766,6.865401,-30.843758,-14.846254
2020-05-11 13:23:19.912820,-0.046646,-1.016463,0.07939,0.030116,-0.01256,-0.005093,7.345966,-32.075954,-14.550523
2020-05-11 13:23:19.965850,-0.029963,-1.016093,0.097465,-0.000561,0.029341,0.001129,7.416818,-33.500824,-14.340088
2020-05-11 13:23:20.018598,0.000859,-1.012395,0.201958,0.002188,0.019873,-0.002078,7.4735,-34.829781,-14.430331
2020-05-11 13:23:20.071432,0.045374,-0.999203,0.047926,-0.005448,-0.01235,0.001587,7.182845,-36.075909,-14.336911
2020-05-11 13:23:20.124167,0.076679,-1.005059,0.019809,-0.009843,0.031463,0.005077,6.871922,-37.28017,-14.512051
2020-05-11 13:23:20.177139,0.062008,-1.028422,0.126981,0.050327,-0.013435,0.001107,6.320783,-38.29847,-14.596957
2020-05-11 13:23:20.230155,-0.018056,-1.015354,0.079937,-0.006178,0.000615,0.00019,5.767871,-39.25948,-14.943812
2020-05-11 13:23:20.282848,-0.122058,-0.993593,0.182849,-0.000833,-0.016948,0.00523,5.275142,-39.973396,-14.892972
2020-05-11 13:23:20.335679,-0.073437,-1.01973,0.088883,0.037347,0.011152,0.004466,4.735359,-40.324974,-14.892978
2020-05-11 13:23:20.388429,0.016585,-1.021826,0.089005,-0.00801,-0.009617,0.002328,4.521933,-40.581841,-15.026636
2020-05-11 13:23:20.441157,-0.124787,-1.00284,0.185648,0.103015,0.015123,0.005077,4.031991,-40.872719,-15.383438
2020-05-11 13:23:20.493930,-0.023514,-1.053327,0.004319,-0.056879,0.006876,0.000954,3.684839,-41.056629,-15.677596
2020-05-11 13:23:20.546652,-0.042367,-1.017388,0.086084,0.066515,-0.012672,3.8E-05,3.272716,-41.252548,-15.692102
2020-05-11 13:23:20.599409,0.100741,-1.036806,0.063566,-0.035499,-0.012519,0.000649,3.043818,-41.397087,-15.808307
2020-05-11 13:23:20.652177,0.017506,-1.02645,0.027234,0.001611,-0.005647,0.001107,2.9951,-41.433434,-16.241217
2020-05-11 13:23:20.705045,0.038192,-1.023614,0.123451,-0.05352,-0.032219,0.000954,3.023325,-41.468609,-16.491663
2020-05-11 13:23:20.757761,0.065078,-0.999326,0.015793,-0.072151,0.004127,-0.000268,3.090705,-41.832184,-16.55546
2020-05-11 13:23:20.810850,-0.018986,-1.018559,0.085719,0.016577,-0.035121,0.00019,3.10541,-42.415787,-16.83894
2020-05-11 13:23:20.863578,0.014253,-1.024909,0.036302,-0.00236,0.016497,-0.00042,3.027573,-42.907063,-16.961124
2020-05-11 13:23:20.916368,0.080485,-1.007031,0.043118,-0.018395,0.02169,0.000954,3.015704,-43.342773,-17.154755
2020-05-11 13:23:20.969155,0.104669,-1.017881,0.04683,-0.005529,-0.014316,0.00107,2.793408,-43.727936,-17.254454
2020-05-11 13:23:21.021928,-0.015079,-1.01973,0.060889,-0.007972,-0.007138,-0.001068,2.609972,-44.200733,-17.281914
2020-05-11 13:23:21.074685,0.010999,-1.008203,0.070383,0.016356,-0.025649,-0.000295,2.272823,-44.469193,-17.489836
2020-05-11 13:23:21.127496,0.089078,-1.027313,0.03332,-0.004871,0.020624,-0.004265,2.003103,-44.702255,-17.441164
2020-05-11 13:23:21.180200,-0.031204,-1.019607,0.073121,0.001543,0.020777,0.000469,1.641728,-44.827717,-17.317966
2020-05-11 13:23:21.232945,0.012227,-1.022936,0.058454,0.003263,-0.010474,-0.001909,1.677428,-44.751225,-17.443134
2020-05-11 13:23:21.285681,0.013884,-1.016093,0.069652,-0.008213,0.012166,-0.002731,1.487587,-44.744919,-17.206226
2020-05-11 13:23:21.338429,0.002906,-1.0201,0.05888,-0.001148,0.009251,0.00238,1.408515,-44.660591,-16.949873
2020-05-11 13:23:21.391128,-0.012413,-1.007525,0.065149,-0.074185,0.012929,0.007762,1.059657,-44.623623,-16.799995
2020-05-11 13:23:21.443890,-0.001746,-1.019361,0.070565,-0.009119,0.017222,-0.001649,0.903771,-44.587948,-16.938684
2020-05-11 13:23:21.496643,0.004208,-1.020593,0.072999,0.010672,0.009857,-0.000266,0.751062,-44.522816,-16.90436
2020-05-11 13:23:21.549494,0.003836,-1.022196,0.067218,0.00013,0.004657,-0.000995,0.746495,-44.513401,-17.001839
2020-05-11 13:23:21.602222,-0.003482,-1.042046,0.064905,-0.039733,0.006421,0.01321,0.350841,-44.615646,-16.710819
2020-05-11 13:23:21.655066,0.006689,-1.027005,0.05176,-0.055829,0.003254,0.00716,0.398318,-44.77063,-16.745312
2020-05-11 13:23:21.707881,0.212826,-1.034464,0.093691,-0.078278,0.779511,-0.043389,0.2123,-44.851925,-16.514315
2020-05-11 13:23:21.760697,0.003588,-1.001175,0.10282,-0.269784,0.542648,-0.036517,0.125085,-44.977947,-16.468983
2020-05-11 13:23:21.813533,-0.000877,-1.022073,0.104646,0.259072,0.256458,-0.008264,-0.084687,-44.950691,-16.360079
2020-05-11 13:23:21.866412,0.002534,-1.037053,0.055837,0.055349,-0.329362,0.016171,-0.062104,-44.593452,-16.505398
2020-05-11 13:23:21.919365,-0.000443,-1.007155,0.097951,-0.429678,-0.3034,0.016171,-0.111238,-44.441837,-16.522865
2020-05-11 13:23:21.972166,0.005696,-1.010977,-0.001192,-0.055218,-0.322184,0.014796,0.084655,-44.131481,-16.746037
2020-05-11 13:23:22.025206,0.020698,-1.009374,0.100629,0.328864,0.319682,-0.025674,0.274969,-44.127148,-16.997211
2020-05-11 13:23:22.078076,0.00334,-0.99834,0.077503,-0.241379,-0.051266,0.004106,0.550421,-43.83704,-17.479988
2020-05-11 13:23:22.131056,0.000921,-1.015724,0.091135,-0.079359,0.061901,-0.003707,0.910782,-43.720829,-18.046352
2020-05-11 13:23:22.183894,0.005386,-1.020347,0.093935,0.01009,-0.019733,0.002912,1.053471,-43.243637,-18.089764
2020-05-11 13:23:22.236660,0.011552,-1.00247,0.117,-0.271061,0.072508,-0.008389,1.643622,-42.746006,-18.490589
2020-05-11 13:23:22.289524,-0.012661,-1.004936,0.089249,0.266501,0.044713,-0.008389,1.953343,-42.31131,-18.421909
2020-05-11 13:23:22.342255,-0.000133,-1.0201,0.069835,0.223893,0.06197,-0.009153,2.27392,-41.7318,-18.45413
2020-05-11 13:23:22.395081,0.009097,-1.011901,0.108358,0.054041,0.022408,-0.004567,2.463181,-41.347473,-18.436325
2020-05-11 13:23:22.447808,-0.022955,-1.003333,0.070565,0.036784,-0.171237,-0.005483,2.51379,-40.979027,-18.297142
2020-05-11 13:23:22.500574,-0.034801,-1.016648,0.061071,0.087965,0.079235,-0.003676,2.559877,-40.879429,-18.33979
2020-05-11 13:23:22.553723,-0.005901,-1.015908,0.079207,-0.009743,-0.118715,0.003089,2.445547,-40.958321,-18.43783
2020-05-11 13:23:22.606526,0.000115,-1.014799,0.025104,-0.011575,0.005749,-0.000118,2.398883,-41.09462,-18.493017
2020-05-11 13:23:22.659256,-0.014149,-1.020224,0.127285,0.000642,0.259105,-0.009281,2.232751,-41.252449,-18.772514
2020-05-11 13:23:22.712063,-0.028537,-1.031936,0.002805,-0.000885,-0.21905,0.005533,1.965446,-41.451897,-19.126862
2020-05-11 13:23:22.764984,0.010079,-1.012826,0.100507,-0.002412,-0.128794,0.001104,1.751602,-41.660244,-19.578859
2020-05-11 13:23:22.817761,0.014498,-1.022813,0.056081,0.007116,-0.038583,-0.00469,1.552527,-41.833023,-19.830048
2020-05-11 13:23:22.870536,0.02567,-1.013443,0.124851,0.006658,0.398796,-0.020267,1.348467,-41.922455,-20.53656
2020-05-11 13:23:22.923500,0.018365,-1.016833,0.058089,-0.00617,0.271431,-0.006828,1.375619,-41.920815,-20.735674
2020-05-11 13:23:22.976279,0.034754,-1.012086,0.009104,-0.014875,-0.308586,0.015316,1.33574,-41.858513,-21.28721
2020-05-11 13:23:23.029193,-0.039018,-1.024477,0.112497,-0.004185,0.119173,-0.003774,1.320637,-41.650105,-21.495998
2020-05-11 13:23:23.081963,0.01014,-1.007771,0.06527,-0.054276,-0.066836,0.008749,1.319755,-41.47118,-22.011692
2020-05-11 13:23:23.134859,0.013393,-1.023984,0.090162,-0.068115,-0.153331,0.037097,1.341449,-41.138977,-22.424246
2020-05-11 13:23:23.187595,0.053783,-1.04821,0.150776,-0.083845,-0.147528,0.023505,1.465205,-40.940304,-22.56543
2020-05-11 13:23:23.240462,-0.04832,-0.983483,-0.008943,-0.102629,-0.089801,-0.002915,1.525009,-40.720375,-22.611549
2020-05-11 13:23:23.293239,0.014498,-1.002655,0.221676,0.058182,0.109188,-0.01559,1.578452,-40.483444,-22.802439
2020-05-11 13:23:23.346149,0.014191,-1.016217,0.167999,0.010381,0.006869,-0.008107,1.526007,-40.324394,-23.120766
2020-05-11 13:23:23.398916,0.023644,-1.018498,0.069896,-0.190288,-0.109501,0.016785,1.663251,-40.160561,-23.145889
2020-05-11 13:23:23.451773,0.309749,-1.022504,0.126676,0.427908,0.5006,-0.032695,1.705846,-39.80994,-23.183422
2020-05-11 13:23:23.504509,0.007495,-1.022135,0.204332,0.019392,0.042146,-0.011925,1.723122,-39.608727,-23.294804
2020-05-11 13:23:23.557403,-0.021715,-1.01036,0.077868,0.029624,-0.034365,-0.015743,1.630543,-39.344078,-23.386814
2020-05-11 13:23:23.610143,-0.007451,-1.016771,0.050969,-0.030547,0.364683,0.003499,1.601279,-39.095764,-23.477856
2020-05-11 13:23:23.662970,0.00971,-1.034587,0.10069,-0.035586,0.026569,0.017244,1.505069,-38.854424,-23.379263
2020-05-11 13:23:23.715985,0.011552,-1.02423,0.089675,0.014759,0.020074,-0.003261,1.5849,-38.86261,-23.640335
2020-05-11 13:23:23.768823,-0.030708,-1.022073,-0.051336,0.003458,-0.565288,0.017967,1.503165,-38.838665,-23.547018
2020-05-11 13:23:23.821731,0.021312,-1.024169,0.150594,0.296521,0.300919,-0.011813,1.376178,-38.660942,-23.495609
2020-05-11 13:23:23.874595,0.007433,-1.022628,0.139213,-0.084051,0.168802,-0.008467,1.268987,-38.42728,-23.576513
2020-05-11 13:23:23.927626,0.006689,-1.015785,0.066792,0.109898,-0.005906,-0.009841,1.183235,-38.301338,-23.68482
2020-05-11 13:23:23.980411,0.002596,-1.008881,0.091135,-0.09365,-0.092218,0.000378,1.030633,-38.151794,-23.74822
2020-05-11 13:23:24.033132,0.015235,-1.024107,0.059732,0.107733,0.069702,0.00819,0.953352,-37.977272,-23.534538
2020-05-11 13:23:24.085945,0.006193,-1.027559,0.092778,0.050849,-0.171333,-0.010094,0.701127,-37.843754,-23.651239
2020-05-11 13:23:24.138848,0.003464,-0.997415,0.072695,0.159888,0.302393,-0.022006,0.695347,-37.871109,-23.872444
2020-05-11 13:23:24.191677,0.011859,-1.02121,0.096004,-0.282225,-0.393229,0.008079,0.729922,-37.832008,-23.889605
2020-05-11 13:23:24.244602,-0.002862,-1.023491,0.088336,0.331236,0.695332,0.001513,0.729583,-37.758034,-24.066042
2020-05-11 13:23:24.297904,0.037578,-1.049197,0.123147,0.329556,-0.095738,-0.012843,0.667712,-37.619572,-24.320507
2020-05-11 13:23:24.350667,0.00334,-1.009251,0.067461,-0.215183,-0.447596,0.007621,0.763815,-37.56979,-24.402046
2020-05-11 13:23:24.403473,0.00396,-1.0246,0.128137,-0.099424,-0.289993,0.052978,0.779097,-37.523865,-24.211592
2020-05-11 13:23:24.456210,0.011736,-1.003641,0.053464,-0.015125,-0.054505,0.010676,0.920123,-37.651794,-23.963346
2020-05-11 13:23:24.509079,0.007929,-1.038656,0.096369,-0.058801,0.003222,0.015104,1.088943,-37.748039,-23.843199
2020-05-11 13:23:24.561819,0.00613,-1.020224,0.084989,0.039115,0.007248,-0.011972,1.112,-37.757946,-23.813908
2020-05-11 13:23:24.614647,0.009158,-1.025155,0.089553,-0.015924,0.006121,0.001566,1.102445,-37.930538,-23.287819
2020-05-11 13:23:24.667573,0.003712,-0.992668,0.072939,0.001141,0.005769,0.001071,1.178802,-38.019821,-23.561369
2020-05-11 13:23:24.720412,0.009097,-1.02423,0.099169,-0.032999,0.010449,0.01816,1.189487,-38.042458,-23.356003
2020-05-11 13:23:24.773142,0.007929,-1.007525,0.079876,-0.00636,0.009215,0.004416,1.114034,-37.450691,-23.104544
2020-05-11 13:23:24.825954,0.092761,-1.043032,0.075251,0.019602,0.004633,-0.012994,1.104073,-37.45908,-23.156157
2020-05-11 13:23:24.878711,0.125601,-1.010114,0.086997,-0.010134,0.00566,0.001021,1.017703,-37.660954,-22.9098
2020-05-11 13:23:24.931601,0.068638,-1.038224,0.088397,-0.007843,0.005049,0.002395,1.043808,-37.859043,-22.924818
2020-05-11 13:23:24.984357,-0.031948,-0.978243,0.069591,0.035223,0.003063,-0.002339,1.115092,-37.926033,-22.797367
2020-05-11 13:23:25.037283,0.100741,-1.027251,0.097404,-0.005705,0.021695,-0.006004,1.155318,-37.96743,-22.785479
2020-05-11 13:23:25.090014,-0.028351,-0.988106,0.179684,0.056451,-0.007169,-0.018374,1.1147,-37.957855,-22.700424
2020-05-11 13:23:25.142862,-0.016754,-1.000682,0.164409,-0.000495,0.00739,0.003201,1.110205,-38.02338,-22.551025
2020-05-11 13:23:25.195643,-0.001994,-1.014737,0.103733,-0.008131,0.002656,0.001979,1.21301,-37.947727,-22.321096
2020-05-11 13:23:25.248472,0.016462,-1.017573,0.257948,-0.01088,-0.000398,0.001216,1.200053,-37.984783,-22.003498
2020-05-11 13:23:25.303650,-0.009312,-0.942674,0.269876,0.032186,0.000976,-0.015583,1.441687,-37.794872,-22.005106
2020-05-11 13:23:25.356525,-0.064073,-0.996922,0.228249,-0.022028,0.01976,0.004423,1.584595,-37.66124,-21.765234
2020-05-11 13:23:25.409263,-0.027483,-1.010669,0.147733,-0.000495,0.014873,-0.001075,1.878121,-37.651913,-21.564619
2020-05-11 13:23:25.462258,-0.080011,-0.980401,0.04683,0.034324,-0.002842,-0.012681,1.989742,-37.534676,-21.302435
2020-05-11 13:23:25.515195,0.060351,-1.041368,0.07732,0.001948,0.020524,-0.005962,1.967039,-37.471378,-21.499462
2020-05-11 13:23:25.568129,0.086316,-0.998771,0.104341,0.046541,0.000212,-0.015888,2.077677,-37.396347,-21.52924
2020-05-11 13:23:25.621044,-0.102771,-1.021826,0.132701,-0.008284,0.000976,0.008699,2.126987,-37.269234,-21.030067
2020-05-11 13:23:25.674032,-0.110895,-1.021888,-0.019239,0.003933,0.012735,-0.005656,1.785634,-37.082161,-20.79925
2020-05-11 13:23:25.726777,-0.038584,-1.004812,0.077929,0.0864,-0.002078,-0.030091,1.618953,-37.127663,-20.725004
2020-05-11 13:23:25.779787,0.056116,-1.008018,0.014575,0.052497,0.018844,-0.020012,1.653607,-36.840828,-20.590065
2020-05-11 13:23:25.832626,0.049916,-1.02195,0.09503,-0.055473,0.009375,0.008699,1.541331,-36.580868,-20.371704
2020-05-11 13:23:25.885640,-0.050243,-1.042724,0.167147,-0.055626,0.012582,0.009463,1.17151,-36.366802,-20.136
2020-05-11 13:23:25.938646,-0.059793,-1.02645,0.120469,0.072503,0.006474,-0.028716,1.116453,-36.104065,-19.86027
2020-05-11 13:23:25.991517,-0.011606,-1.020655,0.05815,0.061507,0.034421,-0.018332,0.753208,-35.960964,-19.718134
2020-05-11 13:23:26.044940,-0.013591,-1.006538,0.099047,0.000407,-0.004519,-0.00222,0.641812,-35.773296,-19.685781
2020-05-11 13:23:26.097984,0.013946,-1.007031,0.132641,-0.023522,0.00567,0.003759,0.580695,-35.623161,-19.395496
2020-05-11 13:23:26.150963,-0.028909,-1.035265,0.096978,0.017253,0.001242,-0.004793,0.195801,-35.472561,-19.270773
2020-05-11 13:23:26.203964,0.049732,-1.029409,0.077199,0.027332,0.004907,-0.012582,-0.156914,-35.492352,-18.892063
2020-05-11 13:23:26.256798,0.035614,-1.032121,0.06454,-0.006794,0.018177,-0.005371,-0.416686,-35.508186,-18.946476
2020-05-11 13:23:26.309858,-0.057561,-1.008388,0.09716,0.00359,0.007182,-0.005524,-0.730904,-35.44767,-18.461199
2020-05-11 13:23:26.362599,0.030089,-1.021765,0.13118,-0.018095,0.005502,0.001806,-0.959878,-35.374859,-18.523335
2020-05-11 13:23:26.415524,-0.04094,-1.029717,0.06314,0.021763,0.015428,-0.007509,-1.333457,-35.469082,-18.677643
2020-05-11 13:23:26.468256,0.031133,-1.021888,0.090222,0.037493,-0.002287,-0.013313,-1.60432,-35.477371,-18.408842
2020-05-11 13:23:26.521247,-0.032134,-0.995874,0.05602,-0.002671,0.003211,-0.002012,-1.972211,-35.447411,-18.745852
2020-05-11 13:23:26.574130,0.005448,-1.018806,0.093387,-0.041919,0.001073,0.003792,-2.126523,-35.472233,-18.608686
2020-05-11 13:23:26.627052,0.035123,-1.036066,0.089005,-0.007011,0.008419,0.000122,-2.361974,-35.571373,-18.702341
2020-05-11 13:23:26.679911,0.047277,-1.011347,0.055837,0.029096,0.020096,-0.010511,-2.499934,-35.693378,-18.852808
2020-05-11 13:23:26.732834,-9E-06,-1.025772,0.091318,-0.011374,-0.002506,0.000943,-2.599102,-35.833675,-18.851149
2020-05-11 13:23:26.785647,0.047461,-0.992422,0.045796,-0.016261,0.005435,0.002928,-2.588836,-35.994701,-18.931177
2020-05-11 13:23:26.838564,0.05673,-1.059553,0.13897,0.008174,0.000548,-0.013107,-2.647824,-36.068634,-18.974861
2020-05-11 13:23:26.891297,0.006565,-1.030272,0.083285,-0.017024,0.000548,-0.008373,-2.739814,-36.078991,-19.163801
2020-05-11 13:23:26.944126,0.001107,-1.013936,0.079329,0.026502,0.006287,-0.004846,-2.858206,-35.995792,-19.091227
2020-05-11 13:23:26.996974,0.009649,-1.015292,0.114322,0.004804,0.002977,0.002697,-3.064919,-35.892643,-18.88208
2020-05-11 13:23:27.051894,0.008544,-1.029532,0.041231,0.441419,-0.171272,-0.00555,-3.01749,-35.907703,-18.793213
2020-05-11 13:23:27.104714,0.006441,-1.020347,0.098499,0.060698,-0.050015,-0.030748,-3.119547,-35.816071,-19.067877
2020-05-11 13:23:27.157689,-0.023576,-1.006045,0.354104,0.651557,0.367969,0.023619,-3.089192,-35.620789,-19.412544
2020-05-11 13:23:27.210421,0.088403,-1.027559,-0.127097,0.047717,-0.129886,0.010638,-2.997709,-35.379181,-19.490704
2020-05-11 13:23:27.263215,0.049977,-1.017511,0.201411,-0.021311,0.31177,-0.011811,-2.846122,-35.265179,-19.43701
2020-05-11 13:23:27.316090,-0.144446,-1.018621,0.070565,0.00068,-0.519465,0.024841,-2.691252,-35.234966,-19.269117
2020-05-11 13:23:27.368904,0.051635,-1.018744,0.052916,0.093226,0.048792,-0.027847,-2.578557,-35.082722,-19.294607
2020-05-11 13:23:27.421670,0.04034,-1.002038,0.199098,0.036874,0.234495,-0.021891,-2.6788,-34.960926,-19.268511
2020-05-11 13:23:27.474801,0.041445,-1.034094,0.033989,0.001749,-0.033064,0.003766,-2.708595,-34.875687,-19.494602
2020-05-11 13:23:27.527630,-0.070894,-1.00623,0.232509,0.045121,0.025274,-0.01456,-2.962031,-34.74041,-19.457561
2020-05-11 13:23:27.580492,0.023767,-0.98712,0.065696,0.063447,0.12683,-0.02861,-3.203979,-34.693176,-19.334951
2020-05-11 13:23:27.633456,0.007123,-1.004319,0.032894,0.017044,-7.4E-05,-0.000198,-3.408739,-34.521214,-19.16132
2020-05-11 13:23:27.686336,-0.025808,-1.019915,0.096917,-0.032436,0.471208,-0.013943,-3.572546,-34.243374,-18.566248
2020-05-11 13:23:27.739175,0.024995,-1.006723,0.067096,0.006354,-0.228385,-0.002642,-3.731591,-33.947914,-18.706161
2020-05-11 13:23:27.792368,0.050714,-1.010052,0.07945,0.001772,-0.228538,0.008201,-3.920428,-33.742043,-18.457808
2020-05-11 13:23:27.845325,-0.04584,-1.020963,0.019262,0.107605,-0.061008,-0.042195,-4.088297,-33.369987,-18.413116
2020-05-11 13:23:27.898085,0.029169,-0.997723,0.230866,-0.026327,0.067884,0.007285,-4.228193,-33.029652,-18.173977
2020-05-11 13:23:27.950844,0.025793,-1.054683,-0.012274,0.044838,-0.011375,-0.01715,-4.323309,-32.574417,-18.139565
2020-05-11 13:23:28.003642,0.052126,-1.046238,0.278031,-0.038697,0.371943,-0.040821,-4.309802,-32.082157,-18.28927
2020-05-11 13:23:28.056400,-0.052351,-1.010853,-0.099118,0.161972,-0.735403,-0.026007,-4.321396,-31.859114,-18.350925
2020-05-11 13:23:28.109254,-0.088693,-1.028114,0.043727,-0.030298,-0.096897,0.009728,-4.269072,-31.42453,-18.554243
2020-05-11 13:23:28.162030,-0.093841,-1.054375,0.023217,0.053087,0.007605,-0.023959,-3.980812,-31.168344,-18.783724
2020-05-11 13:23:28.214839,-0.062522,-1.035758,0.087362,-0.066184,0.278218,0.01254,-3.968605,-31.207348,-19.127111
2020-05-11 13:23:28.267587,-0.016568,-1.027744,-0.036075,0.002691,0.141842,-0.01388,-3.846838,-31.018995,-19.36405
2020-05-11 13:23:28.320416,0.037701,-1.016217,0.106715,-0.01365,0.567463,-0.017545,-3.654226,-30.898808,-19.57394
2020-05-11 13:23:28.373188,0.012657,-1.004627,0.067035,-0.005098,0.189184,-0.018156,-3.444135,-31.046608,-20.11957
2020-05-11 13:23:28.426115,0.019347,-1.042786,0.106106,-0.013345,0.070371,1.7E-05,-3.085663,-31.225836,-20.033079
2020-05-11 13:23:28.478897,0.003092,-1.034957,0.036241,0.024071,-0.398163,0.001392,-2.916485,-31.485094,-19.952265
2020-05-11 13:23:28.531817,0.041322,-1.02232,0.050969,-0.009679,-0.311114,0.010097,-2.321943,-31.643711,-19.437256
2020-05-11 13:23:28.584605,0.005138,-1.007956,0.042996,0.020406,-0.3131,-0.00655,-1.745509,-31.868185,-18.711452
2020-05-11 13:23:28.637455,-0.012226,-1.057457,-0.005613,0.004371,-0.170615,1.7E-05,-1.071562,-32.157543,-18.171488
2020-05-11 13:23:28.690211,0.036842,-1.009312,0.111097,0.033387,-0.060965,-0.009757,-0.633204,-32.456116,-17.698837
2020-05-11 13:23:28.742991,0.01591,-1.002346,0.055594,-0.039154,-0.021411,-0.022585,0.036682,-32.609592,-17.059221
2020-05-11 13:23:28.795749,-0.029529,-1.026388,0.022974,0.023765,0.002565,-0.018461,0.443791,-32.586002,-16.535906
2020-05-11 13:23:28.848545,-0.049499,-1.011162,0.131423,-0.024187,0.041202,-0.000288,0.696678,-32.432957,-16.314829
2020-05-11 13:23:28.901385,0.043962,-1.006908,-0.073986,-0.019911,-0.000795,0.001697,0.949388,-32.011681,-15.972352
2020-05-11 13:23:28.954198,0.006813,-1.025525,0.113592,-0.013345,0.021502,-0.000135,1.274755,-31.760042,-15.785537
2020-05-11 13:23:29.007079,-0.033684,-1.020532,0.133919,-0.026629,0.004694,0.011679,1.327849,-31.656311,-15.575068
2020-05-11 13:23:29.059851,0.033036,-1.036991,0.070322,-0.017313,0.089299,-0.004203,1.493525,-31.445251,-15.354394
2020-05-11 13:23:29.112624,-0.006645,-1.039395,0.04823,0.010427,-0.03045,-0.004063,1.536465,-31.343491,-15.087783
2020-05-11 13:23:29.165431,-0.021219,-1.009312,0.117609,0.012718,0.016434,-0.005285,1.834017,-31.091316,-15.048826
2020-05-11 13:23:29.218193,0.01591,-1.011963,0.082615,0.013023,0.005133,-0.009256,1.870459,-30.871281,-14.881101
2020-05-11 13:23:29.271005,-0.003854,-1.004627,0.045431,0.032076,-0.019839,-0.013524,2.000412,-30.676956,-15.075245
2020-05-11 13:23:29.323976,0.01014,-1.025648,0.130389,-0.051918,-0.009607,0.014882,2.109975,-30.533693,-15.064945
2020-05-11 13:23:29.376836,0.003402,-0.993963,-0.010094,0.004587,0.004748,-0.005735,2.309625,-30.345898,-15.082855
2020-05-11 13:23:29.429675,-0.004164,-1.015477,-0.00319,-0.018301,-0.003087,0.004495,2.273345,-30.268847,-15.007113
2020-05-11 13:23:29.482585,-0.004784,-1.030518,0.064905,0.053171,-0.098382,-0.019176,2.244322,-30.079132,-14.844825
2020-05-11 13:23:29.536053,-0.029095,-1.018991,0.066183,0.010801,-0.144262,-0.006137,2.316303,-30.055435,-14.857365
2020-05-11 13:23:29.588790,-0.006645,-1.021641,0.078294,0.021808,-0.073021,-0.004603,2.312287,-29.932798,-14.876114
2020-05-11 13:23:29.641670,-0.006087,-1.022196,0.016462,-0.001863,-0.226654,0.006087,2.269875,-29.761503,-14.725498
2020-05-11 13:23:29.694515,-0.009498,-1.020532,0.058089,0.002038,-0.043424,0.00367,2.381545,-29.813528,-14.741565
2020-05-11 13:23:29.747386,-0.037963,-1.055176,0.121078,0.010895,0.023007,-0.006562,2.420481,-29.781963,-14.754418
2020-05-11 13:23:29.800220,-0.052848,-0.949886,0.187413,-0.729168,1.053537,0.022148,2.48523,-29.890884,-14.89545
2020-05-11 13:23:29.853030,-0.027855,-1.063683,0.012567,0.422618,0.012317,-0.052988,2.39703,-30.002417,-15.104157
2020-05-11 13:23:29.905896,-0.016506,-0.90692,0.133736,-0.328288,0.017357,0.045819,2.416069,-30.097742,-15.271124
2020-05-11 13:23:29.958830,-0.007017,-0.926646,0.098195,0.070616,0.01294,-0.025978,2.2801,-30.113014,-15.163538
2020-05-11 13:23:30.011687,-0.003792,-1.113678,-0.053213,0.434539,-0.003248,-0.024145,2.182525,-30.18622,-15.338966
2020-05-11 13:23:30.064460,-0.000629,-1.017326,0.073486,0.010904,0.011413,-0.00307,2.115666,-30.287476,-15.432821
2020-05-11 13:23:30.117325,-0.004102,-1.023861,0.063201,0.043608,0.009409,-0.017878,2.084578,-30.276999,-15.255124
2020-05-11 13:23:30.170197,-0.004164,-1.032861,0.057541,0.004215,0.001271,-0.007391,2.132508,-30.103949,-15.243715
2020-05-11 13:23:30.223135,-0.024444,-1.025278,0.056507,-0.016888,-0.006005,0.01308,1.997251,-30.233856,-15.054445
2020-05-11 13:23:30.276004,-0.016816,-1.037916,0.069713,-0.005253,0.017225,0.007329,2.057046,-30.160917,-15.112227
2020-05-11 13:23:30.328850,-0.014087,-1.029964,0.055898,-0.052319,0.020489,0.016385,2.099283,-30.23064,-14.748774
2020-05-11 13:23:30.381638,-0.229782,-0.976209,0.075799,-0.074768,0.026445,0.052884,2.043471,-30.201036,-14.86769
2020-05-11 13:23:30.434484,-0.080631,-1.030087,0.066122,-0.012918,0.01102,-0.000414,2.295622,-30.116365,-15.134249
2020-05-11 13:23:30.487314,-0.113004,-1.030333,0.061558,-0.005844,0.02143,0.004767,2.301343,-29.981543,-15.251614
2020-05-11 13:23:30.540125,-0.090616,-1.011778,0.093752,-0.016869,0.017763,0.017747,2.58032,-29.922474,-15.403617
2020-05-11 13:23:30.593096,-0.023514,-1.034217,0.063749,-0.000681,0.028453,0.009806,2.898701,-29.905712,-15.603668
2020-05-11 13:23:30.645944,-0.119702,-1.009127,0.120469,-0.034889,0.039601,0.015151,3.343806,-29.886206,-15.682354
2020-05-11 13:23:30.698716,-0.045902,-1.022874,0.124181,0.001304,-0.008046,0.011486,3.89589,-29.779118,-15.582594
2020-05-11 13:23:30.751567,-0.054522,-1.012703,0.108906,-0.001839,0.014218,0.001507,4.863957,-29.68125,-15.755567
2020-05-11 13:23:30.804333,-0.048506,-1.0111,0.207679,0.007476,0.033002,0.000743,5.515211,-29.779819,-15.783534
2020-05-11 13:23:30.857182,0.043655,-1.006045,0.067401,-0.008406,-0.007315,0.007463,6.333014,-30.364874,-15.823341
2020-05-11 13:23:30.909935,-0.027669,-1.0156,0.073547,0.001368,-0.019685,0.000133,6.796857,-31.17445,-15.361248
2020-05-11 13:23:30.962764,0.032361,-1.009189,0.093083,-0.019402,0.036973,0.004714,7.235131,-32.047764,-14.918935
2020-05-11 13:23:31.015574,-0.013901,-0.994148,0.05389,0.001062,0.034377,0.002881,7.55215,-33.045258,-14.666778
2020-05-11 13:23:31.068393,-0.033746,-1.048827,0.009891,-0.034062,0.027505,0.007005,7.620965,-34.209179,-14.386603
2020-05-11 13:23:31.121174,-0.064693,-0.990942,0.115418,0.009767,0.007041,-0.001395,7.284017,-35.500145,-14.240912
2020-05-11 13:23:31.174011,-0.034987,-1.015354,0.065879,-0.045211,0.012233,0.036784,7.003259,-36.813461,-14.051722
2020-05-11 13:23:31.226856,-0.038708,-1.026326,0.071843,-0.364388,0.061255,0.098787,6.274652,-37.961693,-14.118283
2020-05-11 13:23:31.280152,-0.009746,-1.008388,0.161609,-0.499694,0.055146,0.005478,5.674967,-39.014454,-14.235455
2020-05-11 13:23:31.332968,0.016892,-1.020532,0.090222,-0.593004,0.083093,-0.045835,5.066419,-39.807873,-14.387302
2020-05-11 13:23:31.385828,0.038008,-1.031443,-0.007308,-0.644164,0.097143,-0.058358,4.529181,-40.369419,-14.747034
2020-05-11 13:23:31.438593,0.023521,-0.993531,0.012689,-0.659436,0.095769,-0.067521,4.03779,-40.855251,-14.906976
2020-05-11 13:23:31.491391,0.050714,-1.029285,0.025469,-0.664933,0.094089,-0.067368,3.756677,-41.402485,-14.973913
2020-05-11 13:23:31.544293,0.041384,-1.033108,0.079755,-0.67486,0.094852,-0.06859,3.537387,-41.645111,-15.219228
2020-05-11 13:23:31.597165,0.045558,-1.020655,0.048108,-0.679289,0.099281,-0.069811,3.501955,-42.131954,-15.331219
2020-05-11 13:23:31.649978,0.035675,-1.008203,-0.0345,-0.675318,0.095769,-0.073629,3.356009,-42.533627,-15.560277
2020-05-11 13:23:31.702846,-0.009746,-1.026635,-0.022812,-0.686161,0.097601,-0.060801,3.099252,-43.202595,-15.929478
2020-05-11 13:23:31.755745,-0.018924,-1.010114,0.10848,-0.693339,0.099739,-0.064314,2.731447,-43.798756,-15.879081
2020-05-11 13:23:31.808503,-0.008754,-0.986874,0.174876,-0.692881,0.098823,-0.067521,2.297203,-44.318375,-15.60632
2020-05-11 13:23:31.861383,0.010263,-1.022566,0.083954,-0.685397,0.099587,-0.070728,1.821008,-44.73407,-15.361962
2020-05-11 13:23:31.914254,-0.012971,-1.008573,0.059428,-0.691201,0.101877,-0.064772,1.372851,-44.834873,-15.236209
2020-05-11 13:23:31.967139,0.032667,-1.02497,0.066974,-0.698836,0.099892,-0.065994,0.868726,-45.006996,-15.214055
2020-05-11 13:23:32.019994,-0.011854,-1.057457,0.050604,-0.679594,0.100503,-0.098675,0.689426,-44.92514,-15.338703
2020-05-11 13:23:32.072823,-0.005963,-1.018066,0.114931,-0.441815,0.014524,-0.089359,0.411586,-45.042618,-15.142058
2020-05-11 13:23:32.125677,0.014805,-1.017141,0.157653,-0.647829,0.045983,0.003492,0.491714,-45.18539,-14.798788
2020-05-11 13:23:32.178458,0.001355,-1.000805,0.183518,-0.44212,0.005666,0.007005,0.264617,-45.324005,-14.245241
2020-05-11 13:23:32.231306,0.00303,-1.013443,0.149864,-0.049609,0.011825,0.001162,0.273339,-45.398304,-14.049374
2020-05-11 13:23:32.284200,0.004766,-1.023984,0.14962,0.087683,0.580846,-0.077487,0.162716,-45.53093,-13.860719
2020-05-11 13:23:32.337089,0.004518,-1.00173,0.196907,0.096388,0.681486,-0.095661,0.247818,-45.752907,-13.968387
2020-05-11 13:23:32.389890,-0.006211,-1.022628,0.103429,0.15274,0.112771,-0.012125,-0.0481,-45.918289,-14.106821
2020-05-11 13:23:32.442739,0.014805,-1.0111,0.140978,0.260711,-0.317584,0.034301,-0.273635,-46.038399,-14.211757
2020-05-11 13:23:32.495703,-0.001498,-1.017696,0.13045,0.094861,-0.395164,0.040868,-0.308463,-45.841743,-14.603691
2020-05-11 13:23:32.548571,-0.003296,-1.019052,0.083102,-0.215153,-0.164104,0.021778,-0.078725,-45.782001,-14.588915
2020-05-11 13:23:32.601429,-0.002552,-1.013319,0.115479,-0.027878,-0.026214,0.004961,0.049065,-45.898872,-14.940285
2020-05-11 13:23:32.654265,0.072321,-1.018004,0.305296,-0.117522,-0.013385,0.004961,0.229698,-45.839901,-14.913394
2020-05-11 13:23:32.707128,-0.01049,-1.035943,0.1425,-0.179831,-0.938083,0.119956,0.469403,-45.628056,-15.092363
2020-05-11 13:23:32.759968,-0.004784,-0.996059,0.195203,-0.492288,-0.855463,0.136908,0.851568,-45.489075,-14.982758
2020-05-11 13:23:32.812882,-0.006707,-0.985579,0.249549,-0.474726,-0.659223,0.107586,1.2973,-45.371792,-14.479583
2020-05-11 13:23:32.865802,0.008544,-1.03995,0.225876,0.297102,-0.279112,0.040544,2.040285,-45.229176,-14.344352
2020-05-11 13:23:32.918622,0.013516,-1.03884,0.169703,0.380486,-0.284762,0.046347,2.718673,-44.852833,-14.366916
2020-05-11 13:23:32.971585,0.00427,-1.008018,0.181084,-0.547572,-0.19298,0.042377,3.210984,-44.692032,-14.190296
2020-05-11 13:23:33.024946,0.032852,-0.97436,0.095213,-0.04147,-0.315764,0.056426,3.672032,-44.575588,-13.932779
2020-05-11 13:23:33.077878,-0.035669,-0.969674,0.281683,0.634758,0.981103,-0.159667,3.923271,-44.311668,-14.316588
2020-05-11 13:23:33.130745,0.021128,-1.032368,0.230501,0.149273,0.49913,-0.067274,4.113062,-43.844383,-14.678841
2020-05-11 13:23:33.183670,0.00971,-0.992052,0.16733,-0.390579,0.008911,0.001907,4.292895,-43.43396,-14.951209
2020-05-11 13:23:33.236644,-0.127578,-1.001607,0.069044,0.439739,0.739048,-0.109729,4.386362,-43.12392,-14.933756
2020-05-11 13:23:33.289474,0.016769,-1.037792,0.214556,0.461272,0.584193,-0.069106,4.382734,-42.735615,-15.140614
2020-05-11 13:23:33.342346,-0.024506,-0.991559,0.101603,-0.396077,-0.050801,0.010153,4.318233,-42.449368,-15.454281
2020-05-11 13:23:33.395245,-0.079143,-1.010669,0.01774,0.139499,0.069387,-0.007256,4.154631,-42.116692,-15.379796
2020-05-11 13:23:33.448144,-0.211176,-0.997661,0.017192,0.399575,0.397421,-0.04513,4.06855,-41.905437,-15.023845
2020-05-11 13:23:33.500994,0.033895,-1.028916,0.141283,0.206083,0.265169,-0.024819,3.775685,-41.724239,-15.087747
2020-05-11 13:23:33.553827,0.105529,-1.064115,0.251679,-0.087437,-0.062255,0.007252,3.541394,-41.621971,-15.42361
2020-05-11 13:23:33.606725,0.12824,-1.025032,0.105011,0.14744,0.302432,-0.034134,3.21396,-42.339096,-15.468575
2020-05-11 13:23:33.659539,-0.016506,-1.028299,0.158445,0.661025,0.442015,-0.034898,2.728014,-42.260227,-15.908416
2020-05-11 13:23:33.712465,0.002844,-1.036066,0.065514,-0.030932,-0.224134,0.019011,2.266456,-42.355701,-16.626385
2020-05-11 13:23:33.765304,-0.008754,-0.996983,0.082737,-0.173836,-0.047041,0.004648,1.76841,-42.493069,-17.334414
2020-05-11 13:23:33.818158,-0.018552,-1.01147,0.043301,0.248272,0.078187,-0.002835,1.504373,-42.663948,-18.15943
2020-05-11 13:23:33.870995,0.035737,-1.000251,0.22405,0.204595,0.089335,0.00251,1.192344,-42.337143,-19.002491
2020-05-11 13:23:33.923823,0.020575,-1.008634,0.001534,-0.05258,-0.346976,0.01656,1.31232,-42.283058,-19.979113
2020-05-11 13:23:33.976657,0.012779,-1.023799,0.112618,-0.006459,0.214868,0.001594,1.049901,-42.062927,-20.388504
2020-05-11 13:23:34.029482,-0.032568,-1.009436,0.069652,0.013547,-0.065825,0.004648,0.991166,-41.831932,-21.363949
2020-05-11 13:23:34.082309,0.100373,-1.036005,0.17372,-0.00539,-0.219152,0.010909,1.005778,-41.421482,-21.856657
2020-05-11 13:23:34.135196,-0.033498,-0.96462,0.035937,-0.194911,-0.236256,0.011673,1.051068,-41.233395,-22.073587
2020-05-11 13:23:34.188105,-0.017498,-1.03508,-0.00967,-0.029978,-0.142183,0.026487,1.0145,-41.003639,-22.305243
2020-05-11 13:23:34.240965,0.012718,-1.023121,0.114931,-0.006001,0.122169,0.003274,1.114045,-40.594181,-22.621315
2020-05-11 13:23:34.293912,0.013516,-1.017696,0.12832,0.002023,0.079714,-0.000378,1.148881,-40.248318,-22.839306
2020-05-11 13:23:34.346811,0.000301,-1.010669,0.039527,0.005383,-0.074224,0.003745,1.09275,-40.008221,-22.848083
2020-05-11 13:23:34.399619,0.03721,-1.026573,-0.00319,-0.018899,0.254421,0.003745,1.042245,-39.840538,-22.814428
2020-05-11 13:23:34.452476,0.042182,-1.017203,0.124607,-0.015692,0.352923,-0.002211,1.029842,-39.51733,-22.909536
2020-05-11 13:23:34.505319,-0.000505,-1.031505,0.157288,0.003092,-0.200368,0.007563,0.919119,-39.368542,-22.767708
2020-05-11 13:23:34.558168,0.022478,-1.012086,0.082067,0.006605,-0.122177,0.002676,1.15534,-39.255608,-22.904121
2020-05-11 13:23:34.610956,0.009956,-1.012765,0.134101,-0.019204,0.337652,0.00237,1.260317,-39.03109,-22.801149
2020-05-11 13:23:34.663795,0.022478,-1.028176,0.164591,0.046616,-0.219763,0.019475,1.260299,-38.747795,-23.148788
2020-05-11 13:23:34.716625,0.021434,-1.011655,0.12053,-0.018135,-0.214418,-0.000531,1.209885,-38.685825,-23.040464
2020-05-11 13:23:34.769810,0.007557,-0.986812,0.171955,0.066317,0.089488,-0.014276,1.147153,-38.697239,-23.090366
2020-05-11 13:23:34.822590,0.0137,-1.024292,0.119191,-0.00042,-0.00092,0.027569,1.096967,-38.706367,-23.130287
2020-05-11 13:23:34.875501,-0.025188,-1.048149,0.031433,-0.055245,-0.051164,0.011533,1.118419,-38.689278,-23.388855
2020-05-11 13:23:34.928233,-0.005591,-1.018991,0.068618,0.064026,0.044284,-0.020537,1.118781,-38.565826,-23.223803
2020-05-11 13:23:34.981062,0.002534,-1.011593,0.088031,0.0272,0.03705,-0.006271,1.12467,-38.460968,-23.251564
2020-05-11 13:23:35.033993,0.048566,-1.034895,0.077381,-0.052213,0.242912,-0.001079,1.062181,-38.151424,-23.064575
2020-05-11 13:23:35.086859,-0.002428,-1.033231,0.129537,-0.019684,-0.354209,0.007474,0.80499,-38.105049,-22.63896
2020-05-11 13:23:35.139691,0.008851,-1.023614,0.071478,0.011928,-0.099173,0.004725,0.795237,-38.196026,-22.618074
2020-05-11 13:23:35.192531,-0.002924,-1.015354,0.099534,-0.008694,-0.164513,0.007815,0.961035,-37.969967,-22.159727
2020-05-11 13:23:35.245386,-0.051049,-1.026265,0.125033,-0.011138,-0.051045,-0.000126,1.743273,-37.770821,-22.109751
2020-05-11 13:23:35.298189,0.031992,-1.023491,0.093813,-0.009763,0.016609,-0.006693,1.663464,-37.885948,-22.046526
2020-05-11 13:23:35.350972,0.152732,-1.032984,0.067827,-0.013276,0.030353,0.044161,1.767616,-37.874371,-21.728638
2020-05-11 13:23:35.403805,0.007929,-1.018621,0.172077,-0.003349,0.014165,0.004608,1.688538,-37.865108,-21.674809
2020-05-11 13:23:35.456742,0.07938,-1.067259,0.06947,0.003523,0.010347,0.010106,1.602876,-37.936985,-21.756681
2020-05-11 13:23:35.509582,0.083738,-1.004011,0.16447,0.052392,0.024397,-0.015092,1.646346,-37.982288,-21.845425
2020-05-11 13:23:35.562534,0.018181,-0.976455,-0.000465,0.026278,-0.005688,-0.006999,1.753922,-37.957542,-22.003586
2020-05-11 13:23:35.615371,0.100557,-1.024354,0.024069,-0.013581,0.027757,0.004455,1.963183,-37.901154,-21.871523
2020-05-11 13:23:35.668172,-0.140973,-1.006353,0.312416,0.007036,-0.014393,0.001859,1.867392,-37.849945,-21.887903
2020-05-11 13:23:35.720984,-0.066863,-1.018559,0.08298,-0.02137,0.025466,0.006746,2.042758,-37.833374,-21.921347
2020-05-11 13:23:35.773890,-0.01632,-0.996737,0.158323,0.047811,0.02791,-0.017078,2.065452,-37.783524,-21.982967
2020-05-11 13:23:35.826718,-0.022955,-0.988045,0.03758,0.022918,0.023786,-0.012649,2.089207,-37.694851,-21.895706
2020-05-11 13:23:35.879687,0.123023,-1.055115,0.182301,-0.025188,0.005002,0.006288,1.917811,-37.520233,-21.625414
2020-05-11 13:23:35.932488,-0.055886,-1.036313,0.14463,0.008105,0.016456,-0.003639,1.887094,-37.154884,-21.298771
2020-05-11 13:23:35.985316,-0.014521,-1.001052,0.092352,0.029179,0.015234,-0.010511,1.77852,-37.063866,-21.179827
2020-05-11 13:23:36.038118,0.059676,-1.011223,0.03472,0.051781,0.013707,-0.018605,1.691661,-36.783691,-21.270626
2020-05-11 13:23:36.091041,-0.031886,-1.012826,0.01847,0.03147,0.002559,-0.004402,1.599774,-36.565651,-20.956829
2020-05-11 13:23:36.143854,-0.036537,-1.043279,0.151628,-0.02366,0.004849,0.009037,1.531865,-36.555889,-20.865597
2020-05-11 13:23:36.196645,-0.013095,-1.019915,0.096369,-0.022897,0.01783,0.010564,1.488737,-36.407806,-20.690918
2020-05-11 13:23:36.249431,-0.01601,-1.030087,0.130328,0.02614,-0.003136,-0.007061,1.476635,-36.264946,-20.44367
2020-05-11 13:23:36.302328,-0.063638,-1.018867,0.064418,0.067679,0.015648,-0.022943,1.282153,-35.998188,-20.31851
2020-05-11 13:23:36.355174,0.006813,-1.01184,0.096552,0.036067,0.017938,-0.01546,1.249768,-35.851868,-20.183516
2020-05-11 13:23:36.408059,-0.002118,-1.043402,0.177797,-0.041666,0.019618,0.009127,0.943859,-35.83849,-19.959299
2020-05-11 13:23:36.460883,0.092147,-1.022936,0.100325,0.005065,0.023283,-0.007366,0.637533,-35.681416,-20.021084
2020-05-11 13:23:36.514170,0.00272,-1.030765,0.170008,0.020642,0.022978,-0.003853,0.308471,-35.63504,-19.933952
2020-05-11 13:23:36.567260,0.036228,-1.01634,0.195142,0.025712,0.001397,-0.005792,0.190822,-35.787003,-20.053106
2020-05-11 13:23:36.620158,0.033404,-1.001052,0.042875,0.036249,0.019112,-0.010831,0.091103,-35.792698,-19.634151
2020-05-11 13:23:36.672977,-0.044785,-1.013011,0.049386,0.014563,0.007811,-0.00457,-0.179072,-35.675278,-19.339664
2020-05-11 13:23:36.725960,0.025179,-1.023552,0.069348,0.007996,0.028886,-0.007472,-0.529613,-35.678921,-19.327801
2020-05-11 13:23:36.778801,-0.041064,-1.009251,0.082128,0.017618,-0.022885,-0.010526,-0.877245,-35.66964,-19.425814
2020-05-11 13:23:36.831735,0.018488,-1.020717,0.080059,-9.8E-05,-0.01082,0.001691,-1.065751,-35.790287,-18.641283
2020-05-11 13:23:36.884589,-0.147795,-1.01634,0.082189,0.0138,-0.015402,-0.000294,-1.322955,-35.886806,-18.850451
2020-05-11 13:23:36.937522,-0.003048,-1.040012,0.090831,-0.001167,0.096845,0.001997,-1.573519,-35.976219,-18.872507
2020-05-11 13:23:36.990374,0.085334,-1.016956,0.08298,0.001582,0.011934,-0.007624,-1.61717,-35.992859,-19.023808
2020-05-11 13:23:37.043200,0.042059,-1.023429,0.049691,-0.005137,0.01224,0.005509,-1.752891,-35.975677,-19.098358
2020-05-11 13:23:37.096121,-0.077282,-1.010792,0.084989,0.000208,0.02629,0.003524,-1.979067,-36.187588,-19.143473
2020-05-11 13:23:37.149008,-0.071204,-1.043094,0.022,0.022352,0.001855,-0.009762,-2.311209,-36.180252,-19.228958
2020-05-11 13:23:37.201868,-0.077096,-1.001545,0.050543,-0.029572,0.012545,0.005509,-2.420122,-36.235371,-19.480394
2020-05-11 13:23:37.254811,-0.095267,-1.008449,0.076712,0.026331,0.009027,-0.002351,-2.798452,-36.175785,-19.350313
2020-05-11 13:23:37.307672,0.001851,-1.024354,0.090405,0.026025,0.007652,0.004979,-3.017117,-36.329376,-19.70532
2020-05-11 13:23:37.360569,0.003154,-1.024415,0.096795,0.120672,-0.06553,0.002451,-3.180848,-36.318077,-19.820807
2020-05-11 13:23:37.413504,0.002596,-1.022381,0.041901,0.595772,-0.3815,0.005048,-3.205433,-36.180965,-19.823124
2020-05-11 13:23:37.466364,0.003154,-1.019361,-0.001616,0.290339,-0.080954,-0.002894,-3.197101,-36.071274,-20.095192
2020-05-11 13:23:37.521182,0.000549,-1.039519,0.039893,-0.121689,0.483485,0.023221,-3.140036,-35.709076,-20.187908
2020-05-11 13:23:37.574079,-0.07077,-1.031196,0.058637,-1.154968,0.006858,0.007491,-3.200783,-35.55349,-20.206877
2020-05-11 13:23:37.626976,-0.014149,-1.028361,0.166174,0.059738,0.414763,-0.009919,-3.170982,-35.496109,-20.085491
2020-05-11 13:23:37.679746,-0.068228,-0.968072,0.058272,-0.636496,0.191186,0.006727,-3.16394,-35.316032,-19.482822
2020-05-11 13:23:37.732578,0.029414,-1.037361,0.01135,0.042634,-0.115926,-0.001519,-3.035107,-35.385426,-19.541115
2020-05-11 13:23:37.785432,-0.0237,-1.03021,0.338281,0.007662,-0.088743,0.001535,-3.20084,-35.178692,-19.451189
2020-05-11 13:23:37.838260,0.006813,-1.038964,-0.099179,-0.117566,-0.177013,0.009629,-2.969427,-35.129185,-19.286272
2020-05-11 13:23:37.891149,-0.061592,-1.022135,0.030703,-0.073431,-0.516043,0.019098,-3.053096,-34.955406,-19.078794
2020-05-11 13:23:37.943971,-0.0028,-1.001915,-0.015968,-0.008526,1.168723,-0.029466,-3.187232,-34.938358,-18.767536
2020-05-11 13:23:37.996776,0.034693,-1.063252,0.168486,0.042328,-0.35508,-0.001825,-3.33934,-34.741756,-18.745159
2020-05-11 13:23:38.049632,-0.038584,-1.032306,0.035389,-0.03739,-0.650891,0.031315,-3.354627,-34.578377,-18.599415
2020-05-11 13:23:38.102407,-0.03387,-1.029902,0.001957,-0.000585,0.4815,-0.021525,-3.484456,-34.191525,-18.299772
2020-05-11 13:23:38.155275,0.00334,-1.042601,0.084076,0.095015,-0.451902,0.003368,-3.25792,-33.778362,-18.446493
2020-05-11 13:23:38.208090,0.003092,-1.009374,0.029425,1.549791,-0.497564,-0.003963,-3.199891,-33.270966,-18.787596
2020-05-11 13:23:38.264144,-0.004412,-1.018189,-0.182571,0.977105,-0.485805,-0.0426,-2.979867,-32.621098,-19.319069
2020-05-11 13:23:38.316982,-0.008568,-1.013073,-0.153441,-0.026695,-0.152807,-0.021989,-2.742249,-31.668192,-19.918579
2020-05-11 13:23:38.369820,5.3E-05,-1.021518,-0.108081,-0.220645,0.046183,0.002752,-2.568954,-31.229101,-20.369131
2020-05-11 13:23:38.422594,-0.002676,-1.022073,-0.016211,-0.589302,0.087721,0.00153,-2.486318,-30.908323,-20.337328
2020-05-11 13:23:38.475427,-0.000877,-1.023306,-0.025598,-0.324492,0.059774,0.000919,-2.414609,-30.859058,-20.474594
2020-05-11 13:23:38.528209,-0.004288,-1.022258,-0.039769,-0.391229,0.230817,0.009776,-2.390842,-30.880634,-20.523392
2020-05-11 13:23:38.581016,0.093682,-0.833747,0.397374,-2.181217,2.323336,-0.047492,-2.489428,-31.221132,-20.039434
2020-05-11 13:23:38.633782,0.010447,-1.019176,0.185283,0.290802,0.378799,-0.012978,-2.937897,-31.578913,-19.524426
2020-05-11 13:23:38.686635,-0.067421,-1.023614,0.149498,-0.039524,0.564196,-0.022599,-3.263072,-31.712667,-19.304184
2020-05-11 13:23:38.739400,0.076433,-1.053142,0.100021,-0.029444,0.311451,-0.020003,-3.456013,-31.728189,-19.037918
2020-05-11 13:23:38.792228,0.050407,-1.034155,0.15601,-0.337473,-0.021318,0.002141,-3.632765,-31.771101,-18.673819
2020-05-11 13:23:38.845060,-0.050429,-1.005121,-0.03129,-0.389855,-0.027274,0.001835,-3.852567,-31.848122,-18.150097
2020-05-11 13:23:38.897869,-0.008754,-0.983113,0.143413,0.033017,0.32657,-0.024432,-4.056408,-31.793861,-17.911263
2020-05-11 13:23:38.950648,-0.017622,-1.063683,0.133188,0.304394,0.066036,-0.01252,-4.191482,-31.787046,-17.766684
2020-05-11 13:23:39.003460,0.006255,-0.983113,0.143352,-0.646265,0.158429,-0.005037,-4.33314,-31.549841,-17.749807
2020-05-11 13:23:39.056296,-0.009994,-1.008758,0.158992,0.256135,0.232038,-0.028555,-4.496867,-31.280792,-17.381832
2020-05-11 13:23:39.109117,-0.008568,-1.046238,0.195933,0.016218,-0.071256,0.007333,-4.493448,-31.132639,-17.224012
2020-05-11 13:23:39.161993,-0.037653,-1.004381,0.125033,0.038515,0.328555,-0.027639,-4.664313,-31.197081,-17.277899
2020-05-11 13:23:39.214868,0.069374,-1.016032,0.136231,-0.042425,0.060538,-0.005801,-4.414606,-31.26083,-17.52149
2020-05-11 13:23:39.268680,-0.00956,-0.996305,0.102942,0.225439,0.091845,-0.018323,-4.31004,-31.476498,-17.547842
2020-05-11 13:23:39.321460,0.020207,-1.006415,0.052673,-0.090073,0.096732,0.000155,-4.041586,-31.813698,-17.673523
2020-05-11 13:23:39.374241,-0.028103,-1.007031,-0.019844,0.330203,-0.308883,0.005959,-3.658824,-32.162743,-17.7915
2020-05-11 13:23:39.427113,0.009588,-1.036621,0.082737,-0.043494,-0.134023,0.017718,-3.218214,-32.435879,-17.853922
2020-05-11 13:23:39.479932,-0.061282,-1.009682,0.085597,0.101586,-0.388753,0.011304,-2.669726,-32.922737,-17.555195
2020-05-11 13:23:39.532735,0.027143,-0.972633,0.110671,-0.331364,0.330846,-0.003663,-2.202935,-33.342716,-17.592239
2020-05-11 13:23:39.585510,0.000921,-0.995134,0.080728,0.314778,-0.078587,-0.010077,-1.639103,-33.495735,-17.308077
2020-05-11 13:23:39.638346,0.059921,-0.959256,0.193864,-0.028223,0.380326,-0.010382,-1.020037,-33.593754,-17.194063
2020-05-11 13:23:39.691095,0.001541,-0.950934,-0.085008,0.03378,-0.046822,-0.006717,-0.664784,-33.507504,-16.8123
2020-05-11 13:23:39.743895,-0.14885,-1.06393,0.085354,0.045387,-0.802309,0.007791,0.017018,-33.487293,-16.626015
2020-05-11 13:23:39.796683,0.018304,-0.966777,0.025043,-0.040745,0.231886,0.021536,0.517659,-33.300358,-16.322994
2020-05-11 13:23:39.849506,-0.085344,-1.072869,0.084258,0.039889,-0.173576,-0.009466,0.873373,-32.931255,-16.138689
2020-05-11 13:23:39.902271,-0.108601,-0.982004,0.035998,-0.01402,-0.013835,0.005195,0.917143,-32.727455,-15.936039
2020-05-11 13:23:39.955413,-0.039452,-1.020409,0.033624,0.035155,-0.555672,0.000766,1.04736,-32.424145,-15.843652
2020-05-11 13:23:40.008204,0.035184,-0.985949,0.111401,-0.02135,0.387809,-0.00351,1.095533,-32.102211,-15.592505
2020-05-11 13:23:40.061019,0.032238,-0.993593,0.051577,0.029352,0.135827,-0.016796,1.341272,-31.643404,-15.467132
2020-05-11 13:23:40.113802,0.041629,-1.026142,0.068922,0.001252,0.281518,-0.004273,1.666663,-31.331247,-15.506298
2020-05-11 13:23:40.166655,0.009281,-1.052834,0.029973,0.300728,-0.163497,-0.046423,1.742175,-31.051027,-15.775885
2020-05-11 13:23:40.219431,-0.028661,-1.015662,0.03332,0.113193,-0.137993,0.005653,1.774586,-30.973223,-15.811411
2020-05-11 13:23:40.272241,-0.0108,-1.027621,0.045857,-0.002333,-0.131031,0.008712,2.114114,-31.069548,-15.793344
2020-05-11 13:23:40.325077,-0.022831,-1.028916,0.108297,-0.070597,-0.162644,0.014363,1.960136,-30.841669,-15.813756
2020-05-11 13:23:40.377940,-0.138555,-1.019237,0.056203,0.05127,0.034208,0.026886,1.993754,-30.671562,-15.920157
2020-05-11 13:23:40.430725,-0.073561,-1.032244,0.089127,-0.230644,0.053755,0.003062,2.031848,-30.401304,-16.159271
2020-05-11 13:23:40.483535,-0.093469,-1.001237,0.05103,0.02989,0.043676,0.028718,2.168724,-30.142406,-16.272114
2020-05-11 13:23:40.536354,-0.079453,-1.03508,0.105559,-0.112441,0.060322,-0.000756,2.451825,-29.953585,-16.324615
2020-05-11 13:23:40.589173,-0.079639,-1.009621,0.056203,-0.060212,0.061086,0.017723,3.014305,-29.729342,-16.456688
2020-05-11 13:23:40.641939,-0.014707,-1.022011,0.147186,0.001638,0.023212,0.000924,3.671489,-29.68412,-16.152666
2020-05-11 13:23:40.694835,0.000177,-1.013319,0.048108,-0.11351,0.009926,0.007949,4.264437,-29.654041,-16.208719
2020-05-11 13:23:40.747614,-9E-06,-1.009867,0.069896,0.003207,0.026129,0.004584,4.929194,-30.014202,-16.172207
2020-05-11 13:23:40.800446,0.025363,-1.036436,0.058454,-0.017863,0.014924,0.006202,5.780201,-30.643862,-16.08198
2020-05-11 13:23:40.853239,0.036596,-1.014367,0.060402,-0.004424,0.073477,0.00821,6.360206,-31.64769,-15.835467
2020-05-11 13:23:40.906111,0.002161,-1.024477,0.136292,0.002143,0.022317,-0.000953,6.745811,-32.950851,-15.754478
2020-05-11 13:23:40.958879,-0.038584,-1.009374,0.039162,-0.000148,0.040032,0.00485,6.813494,-34.139751,-15.463056
2020-05-11 13:23:41.011701,0.04077,-1.031936,0.098073,-0.001981,0.042934,-0.001411,6.96844,-35.499493,-15.2735
2020-05-11 13:23:41.064483,0.007557,-1.045313,0.071113,-0.004277,0.008287,0.007051,6.817997,-36.697063,-14.991108
2020-05-11 13:23:41.117398,-0.009126,-1.01745,0.067401,0.006495,0.016425,0.000468,6.540843,-37.923466,-14.750667
2020-05-11 13:23:41.170153,-0.008381,-1.025525,0.074582,-0.031071,0.029016,0.004733,5.98872,-39.050957,-14.877921
2020-05-11 13:23:41.222980,0.046601,-1.018374,0.081459,0.042844,0.012523,0.00061,5.552621,-39.85537,-14.878032
2020-05-11 13:23:41.275777,0.084904,-1.026943,0.102577,-0.060594,0.024949,0.00118,4.923742,-40.511097,-14.901364
2020-05-11 13:23:41.328588,0.049548,-1.015662,0.061984,-0.006685,0.023575,0.005303,4.555039,-41.285728,-14.940369
2020-05-11 13:23:41.381335,0.018427,-1.021395,0.092596,0.157255,-0.00777,0.002027,3.929677,-41.691978,-15.052927
2020-05-11 13:23:41.434157,0.022539,-1.025772,0.061071,-0.047134,-0.003525,0.002402,3.502186,-41.870605,-15.128446
2020-05-11 13:23:41.486945,0.076863,-1.015908,0.055229,0.037471,0.011289,0.00286,3.109794,-41.903732,-15.421303
2020-05-11 13:23:41.539810,0.002223,-1.016956,0.076834,0.072596,0.011289,0.003624,2.812681,-41.881439,-15.385375
2020-05-11 13:23:41.592589,0.10915,-1.028977,0.000383,0.001735,0.011441,-0.000194,2.59179,-41.94289,-15.705296
2020-05-11 13:23:41.645459,0.036228,-1.023984,0.127346,-0.038735,-0.015589,0.002707,2.756677,-42.187214,-15.871161
2020-05-11 13:23:41.698167,0.021005,-1.017141,0.082737,-0.037148,0.017851,0.002174,2.709387,-42.602226,-15.783033
2020-05-11 13:23:41.751316,0.055195,-1.028114,0.067218,0.121016,0.00146,0.002987,2.688355,-43.147694,-16.061193
2020-05-11 13:23:41.804078,0.024626,-1.03656,0.063749,-0.015733,0.024146,0.001412,2.458729,-43.718243,-15.987358
2020-05-11 13:23:41.856957,0.011736,-1.011408,0.009528,0.038481,0.006125,0.00019,2.314229,-44.247868,-16.378647
2020-05-11 13:23:41.910150,-0.039514,-1.018806,0.02979,-0.020162,0.029491,0.000343,2.030628,-44.56179,-16.714922
2020-05-11 13:23:41.963049,-0.039142,-1.039149,0.084745,-0.290622,0.019564,-0.000574,1.887748,-45.038582,-16.82995
2020-05-11 13:23:42.015882,0.009097,-1.022196,0.091866,0.008243,0.056063,-0.003017,1.644643,-45.310238,-16.974272
2020-05-11 13:23:42.068910,-0.014521,-1.018867,0.073486,0.02155,-0.006775,0.000479,1.37736,-45.521461,-17.072296
2020-05-11 13:23:42.121887,0.0563,-1.004751,0.065149,-0.080464,0.006053,-0.001354,1.101933,-45.659946,-17.063549
2020-05-11 13:23:42.174817,0.027389,-1.013073,0.069835,0.011236,0.028881,0.004154,0.987992,-45.691452,-17.37616
2020-05-11 13:23:42.227898,-0.007699,-1.008388,0.082128,-0.014825,0.016846,0.001358,0.852039,-45.716656,-17.254341
2020-05-11 13:23:42.280830,0.105836,-1.123973,0.091379,-0.000928,0.037769,0.00823,0.704076,-45.651436,-17.029043
2020-05-11 13:23:42.333593,0.020268,-1.025648,0.075312,-0.006273,0.036241,-0.003529,0.473706,-45.507778,-17.142262
2020-05-11 13:23:42.386396,0.006937,-1.022073,0.070017,-0.003259,0.021009,-0.001345,0.07101,-45.319668,-17.180538
2020-05-11 13:23:42.439177,0.001417,-1.022998,0.065818,-0.005808,0.016027,0.000176,-0.015947,-45.278957,-17.190821
2020-05-11 13:23:42.492004,0.002347,-1.018128,0.077686,-0.024067,0.013574,0.000318,0.060088,-45.301277,-17.042149
2020-05-11 13:23:42.544866,0.002409,-1.03095,0.058028,-0.32217,0.032511,-0.00182,-0.047084,-45.264244,-16.870911
2020-05-11 13:23:42.597638,0.167218,-1.010607,0.031312,-0.226722,0.717291,-0.04626,-0.188822,-45.350494,-16.963457
2020-05-11 13:23:42.650418,-0.051297,-1.008264,0.079694,0.397277,0.60535,-0.041068,-0.503813,-45.309715,-17.17696
2020-05-11 13:23:42.703252,0.015173,-1.028361,0.004319,-0.006047,0.06336,0.007343,-0.643805,-45.234402,-17.705141
2020-05-11 13:23:42.756095,0.026222,-1.0246,0.06667,-0.236801,0.110702,-0.000751,-0.755799,-45.216843,-18.005653
2020-05-11 13:23:42.809023,0.024074,-1.03132,0.06381,0.219515,-0.046902,-0.003042,-0.470194,-45.251587,-18.432018
2020-05-11 13:23:42.861793,-0.029715,-1.01221,0.043544,-0.011697,0.140023,-0.003958,-0.37051,-45.059826,-18.886425
2020-05-11 13:23:42.914605,0.000487,-1.028299,0.064297,-0.012046,0.018731,-0.001021,-0.184362,-44.686859,-19.49111
2020-05-11 13:23:42.967575,-0.001374,-1.012826,0.046587,-0.353367,-0.385661,0.020054,0.070955,-44.21772,-19.716265
2020-05-11 13:23:43.020469,-0.002986,-1.012641,0.066548,0.113487,0.194661,-0.007282,0.605609,-43.598457,-19.910917
2020-05-11 13:23:43.073208,0.061272,-1.018004,0.125946,0.093787,0.258496,-0.004992,1.027733,-42.987171,-20.046301
2020-05-11 13:23:43.126005,-0.041064,-1.033909,0.108236,-0.072369,0.004376,-0.000563,1.270231,-42.455452,-19.834999
2020-05-11 13:23:43.178764,0.032667,-1.027374,0.00444,0.06813,-0.01731,0.001575,1.35223,-42.023975,-19.790895
2020-05-11 13:23:43.231565,-0.005033,-1.028854,0.040623,0.004753,0.035988,0.004324,1.37303,-41.727585,-19.374989
2020-05-11 13:23:43.284292,-0.073127,-1.035203,0.000988,-0.003188,-0.08481,0.005698,1.305669,-41.941784,-19.600124
2020-05-11 13:23:43.337117,-0.014893,-1.027991,0.077381,-0.005937,-0.199806,0.007531,1.08938,-42.235119,-19.786043
2020-05-11 13:23:43.389857,-0.047514,-1.024847,0.058698,-0.000867,-0.015552,0.000489,0.75955,-42.396603,-19.885386
2020-05-11 13:23:43.442741,-0.082616,-1.033539,0.078598,-0.003201,0.041212,0.002983,0.551685,-42.507492,-20.560492
2020-05-11 13:23:43.496098,0.015296,-1.012949,0.11986,-0.005033,-0.098981,0.004815,0.424593,-42.455933,-21.11801
2020-05-11 13:23:43.549001,-0.054522,-1.027313,0.056507,-0.003048,0.198357,-0.005875,0.39012,-42.445179,-21.622135
2020-05-11 13:23:43.601733,0.037517,-1.01973,0.07233,0.00077,-0.112268,0.003593,0.457741,-42.320698,-21.923742
2020-05-11 13:23:43.654550,-0.061344,-1.02423,-0.032138,-0.003964,0.101382,-0.002515,0.595838,-42.007656,-22.5718
2020-05-11 13:23:43.707365,0.080792,-0.995627,0.165078,-0.007629,0.675748,-0.022827,0.219116,-41.732826,-22.936255
2020-05-11 13:23:43.760176,0.058939,-1.014984,0.091926,-0.012822,-0.425489,0.023599,0.085738,-41.494667,-23.352755
2020-05-11 13:23:43.812934,0.022969,-1.019669,0.067461,-0.0313,-0.204203,0.023752,0.007035,-41.267548,-23.497097
2020-05-11 13:23:43.865790,0.012779,-1.027683,0.103976,-0.052844,-0.180272,0.035508,0.100874,-41.116344,-23.661964
2020-05-11 13:23:43.918547,-0.011358,-1.027929,0.096369,-0.000447,-0.000212,0.003471,0.248744,-40.867306,-23.671825
2020-05-11 13:23:43.971383,0.02168,-1.015785,0.098134,0.011083,-0.098966,-0.001812,0.42304,-40.527805,-23.647755
2020-05-11 13:23:44.024135,-0.022645,-1.019176,0.053951,-0.018238,0.290002,0.000937,0.439278,-40.433071,-23.695324
2020-05-11 13:23:44.077021,-0.004474,-1.038532,0.059124,-0.033426,0.087684,0.010945,0.323467,-40.290195,-23.524181
2020-05-11 13:23:44.129776,-0.002552,-1.041183,0.050664,0.007349,-0.268451,0.001171,0.398819,-40.096611,-23.166449
2020-05-11 13:23:44.182610,0.058448,-0.977873,0.161487,0.026591,0.44901,-0.02754,0.2855,-39.795372,-23.342241
2020-05-11 13:23:44.235402,-0.000195,-1.037361,0.034476,-0.049156,-0.203394,0.026827,0.222846,-39.499493,-23.343409
2020-05-11 13:23:44.288229,-0.005033,-1.008079,0.146395,-0.038772,0.587219,-0.000815,0.144722,-39.348171,-23.364681
2020-05-11 13:23:44.340975,0.011245,-1.049443,0.165382,0.303313,0.196112,0.005447,-0.147377,-38.970966,-23.532787
2020-05-11 13:23:44.393785,0.009465,-1.019977,0.042205,0.059272,-0.415669,-0.021737,-0.280257,-38.717991,-23.632406
2020-05-11 13:23:44.446528,0.015849,-0.995381,0.077625,-0.041908,-0.14214,-0.019388,-0.30256,-38.649784,-23.537769
2020-05-11 13:23:44.499317,-0.029715,-1.022936,0.067583,-0.045115,0.558981,-0.004117,-0.326003,-38.674503,-23.799101
2020-05-11 13:23:44.552061,0.015235,-1.049012,0.041049,-0.233109,-0.731167,0.043531,-0.445557,-38.639389,-23.859985
2020-05-11 13:23:44.604910,0.004766,-1.044265,0.093691,-0.004645,-0.845246,0.026732,-0.194,-38.580803,-23.972614
2020-05-11 13:23:44.657708,0.001851,-0.990387,0.218147,0.028494,-0.587919,0.016347,-0.031955,-38.46685,-24.1063
2020-05-11 13:23:44.710545,0.008851,-1.006662,0.111888,-0.248991,0.029208,0.011613,0.237681,-38.369587,-23.905262
2020-05-11 13:23:44.763334,0.002037,-1.03132,0.103733,-0.032834,0.02602,-0.005751,0.39739,-38.377159,-23.593344
2020-05-11 13:23:44.816153,0.006813,-1.022751,0.102698,0.015205,0.022643,-0.007774,0.469157,-38.425911,-23.416449
2020-05-11 13:23:44.868929,0.006813,-1.03656,0.080242,-0.016156,0.021298,-0.001609,0.554571,-38.501503,-23.582918
2020-05-11 13:23:44.921743,0.021434,-1.019484,0.120043,-0.244925,0.027864,0.009844,0.107702,-38.610767,-23.431353
2020-05-11 13:23:44.974533,0.00836,-1.032923,0.09503,-0.079391,0.022507,-0.007904,0.366207,-38.527412,-22.819065
2020-05-11 13:23:45.027421,0.044085,-1.023244,0.171833,-0.459197,0.015024,-0.001795,0.589811,-38.777866,-22.593637
2020-05-11 13:23:45.080175,-0.002986,-1.027991,0.130328,0.107686,0.011053,0.051045,0.555894,-38.77087,-22.32613
2020-05-11 13:23:45.132981,0.084966,-0.994394,0.177189,-0.006088,0.02663,0.013629,0.97116,-38.826263,-22.059826
2020-05-11 13:23:45.185762,0.103565,-0.99834,0.144325,0.341495,0.010442,0.003245,1.107373,-38.833984,-21.939758
2020-05-11 13:23:45.238908,0.050591,-1.011408,0.156984,0.429918,0.048469,0.000648,1.305944,-38.84626,-21.820459
2020-05-11 13:23:45.291666,0.025977,-0.988908,0.254175,0.587826,0.013038,-0.006377,1.336001,-38.758499,-22.073685
2020-05-11 13:23:45.344538,-0.011978,-1.003764,0.070748,-0.044267,0.029074,0.009964,1.533646,-38.474834,-22.491274
2020-05-11 13:23:45.397349,-0.100166,-0.996798,0.137814,0.116085,0.022812,-0.004849,1.540562,-38.223507,-22.395327
2020-05-11 13:23:45.450186,0.05587,-1.010299,0.063627,0.042782,0.0474,-0.016609,1.837295,-37.937061,-22.463846
2020-05-11 13:23:45.502958,-0.113686,-0.955434,0.237256,-0.000743,0.035793,-0.000726,1.861881,-37.77499,-22.472172
2020-05-11 13:23:45.555805,-0.070522,-1.005737,0.155158,0.048738,0.043429,-0.02287,1.74715,-37.657532,-22.417816
2020-05-11 13:23:45.608573,-0.040506,-1.022258,0.044396,0.013918,0.035946,-0.004086,1.795365,-37.368404,-22.290071
2020-05-11 13:23:45.661391,-0.012537,-1.018128,0.106228,0.028579,0.012886,-0.010194,1.805938,-37.1493,-22.23727
2020-05-11 13:23:45.714150,0.039911,-1.046361,0.052977,0.02247,0.020674,-0.008667,1.719195,-36.998413,-22.116581
2020-05-11 13:23:45.767027,0.025793,-1.011532,0.078659,0.03427,0.026628,-0.013841,1.599401,-36.755726,-22.075233
2020-05-11 13:23:45.819807,-0.004971,-1.025957,0.072634,-0.020609,0.007287,0.004041,1.503566,-36.567677,-21.603422
2020-05-11 13:23:45.872613,0.033465,-1.008388,0.101542,0.043532,0.026988,-0.003137,1.611698,-36.508717,-21.51943
2020-05-11 13:23:45.925394,-0.038646,-1.002285,0.123208,-0.086887,0.010494,-0.006649,1.491004,-36.443253,-21.55393
2020-05-11 13:23:45.978204,-0.056569,-0.90957,0.031068,0.017723,0.030195,-0.006497,1.663248,-36.159126,-21.479837
2020-05-11 13:23:46.031100,0.041629,-0.996244,-0.033713,0.053153,0.016145,-0.020394,1.504244,-35.913532,-21.109671
2020-05-11 13:23:46.083953,0.038069,-1.000497,0.188022,0.02933,0.0024,-0.011536,1.29864,-35.893921,-20.836782
2020-05-11 13:23:46.136749,0.009588,-1.004011,0.076529,0.028413,0.025766,-0.009857,0.988558,-35.719662,-20.664961
2020-05-11 13:23:46.189579,-0.035917,-1.015662,-0.022085,0.000619,0.10808,-0.002373,0.706891,-35.513168,-20.539125
2020-05-11 13:23:46.242350,-0.075174,-1.037053,0.062045,-0.013125,0.01584,0.002208,0.291158,-35.591927,-20.380346
2020-05-11 13:23:46.295238,-0.0317,-1.01184,0.099534,0.028719,0.007287,-0.010162,0.171372,-35.685425,-20.04122
2020-05-11 13:23:46.348017,-0.232138,-1.026635,0.093326,0.06308,0.026988,-0.017187,-0.103657,-35.394299,-19.697279
2020-05-11 13:23:46.400854,-0.140911,-1.067444,0.088518,0.027497,0.024544,-0.013674,-0.424481,-35.34436,-19.724302
2020-05-11 13:23:46.453639,0.026161,-1.043587,0.07586,-0.082153,0.029126,0.000986,-0.681139,-35.322708,-19.580305
2020-05-11 13:23:46.506468,0.171024,-0.921036,0.027112,-0.094371,0.0108,0.002361,-0.936866,-35.360275,-19.436052
2020-05-11 13:23:46.559230,0.007805,-1.012641,0.144265,-0.144309,0.023628,-0.002068,-1.287048,-35.341537,-19.146318
2020-05-11 13:23:46.612054,-0.100414,-1.004381,0.057055,0.051779,0.024239,-0.009551,-1.718393,-35.399731,-19.039469
2020-05-11 13:23:46.664867,-0.051421,-1.022998,0.079268,0.048725,0.022559,-0.005428,-2.136269,-35.415794,-19.076021
2020-05-11 13:23:46.717695,-0.145377,-1.030827,0.07726,-0.050541,0.009273,-0.001304,-2.29697,-35.465237,-18.983231
2020-05-11 13:23:46.770495,0.017567,-1.011778,0.05389,0.028566,0.011563,0.003735,-2.520731,-35.706051,-18.917715
2020-05-11 13:23:46.823326,0.053353,-1.000374,0.134649,-0.120027,0.032791,0.001292,-2.68294,-35.770626,-19.025106
2020-05-11 13:23:46.876127,0.003464,-0.964003,0.202019,0.261306,-0.01226,-0.00726,-2.913507,-36.005249,-19.05291
2020-05-11 13:23:46.929021,0.001851,-1.016278,0.076042,0.028566,0.021795,-0.016423,-3.11476,-36.046577,-19.01123
2020-05-11 13:23:46.982328,-0.00925,-1.031628,0.121747,0.108284,-0.172154,0.008164,-3.169363,-36.036949,-19.114447
2020-05-11 13:23:47.035092,-0.007017,-1.020532,0.099047,0.000451,-0.1363,0.008335,-2.837845,-36.053642,-19.185398
2020-05-11 13:23:47.087851,-0.048072,-1.010915,0.196542,0.007323,0.556879,-0.02007,-2.858231,-35.896229,-19.152088
2020-05-11 13:23:47.140709,-0.06153,-1.00734,0.001715,-0.001382,0.098272,-0.006173,-2.667339,-35.745903,-19.503159
2020-05-11 13:23:47.193462,-0.003048,-1.018991,0.064114,0.006712,0.046196,-0.002966,-2.917826,-35.607346,-19.327847
2020-05-11 13:23:47.246326,0.005758,-1.023984,0.079085,0.000583,0.128065,-0.004639,-2.978216,-35.453812,-19.219559
2020-05-11 13:23:47.299081,-0.019358,-1.018004,0.067157,0.008536,0.045554,-0.005665,-3.082527,-35.355377,-19.252054
2020-05-11 13:23:47.351969,-0.052537,-0.999511,0.225936,0.016477,-0.1571,-0.002,-3.244377,-35.197346,-19.90855
2020-05-11 13:23:47.404782,0.044576,-1.047039,-0.070534,0.036025,-0.432753,0.005483,-3.401856,-35.046528,-19.521412
2020-05-11 13:23:47.457630,0.155003,-1.011655,0.265494,-0.002002,0.599456,-0.01605,-3.44384,-35.047848,-19.542931
2020-05-11 13:23:47.510488,-0.00466,-1.033231,0.001776,0.014033,0.087246,-0.002916,-3.572626,-34.835445,-19.324799
2020-05-11 13:23:47.563416,0.032974,-1.013319,0.154245,0.012812,0.071821,-0.00032,-3.720456,-34.732609,-19.231647
2020-05-11 13:23:47.616288,0.000301,-1.026326,-0.001858,0.006856,-0.040731,-0.002,-3.91152,-34.381996,-19.203615
2020-05-11 13:23:47.669167,0.004022,-1.009621,0.137022,0.009452,0.232479,-0.008567,-3.82357,-34.17469,-19.195717
2020-05-11 13:23:47.721988,-0.005901,-1.022566,-0.009549,-0.005209,0.104044,-0.004138,-4.033211,-33.868572,-19.073177
2020-05-11 13:23:47.774912,0.13401,-1.022936,0.166721,0.003496,0.37817,-0.015592,-4.217724,-33.62368,-19.134949
2020-05-11 13:23:47.827735,0.010938,-1.011655,0.122538,0.00594,0.00707,-0.002611,-4.415734,-33.2509,-18.995506
2020-05-11 13:23:47.880784,0.057527,-1.016771,-0.017967,-0.020175,0.233395,-0.008261,-4.658142,-32.873394,-18.715433
2020-05-11 13:23:47.933639,-0.017064,-1.034957,0.003593,0.030527,-0.421605,0.013272,-4.734468,-32.425018,-18.68314
2020-05-11 13:23:47.986471,0.00427,-1.02534,0.106654,-0.001085,0.365037,-0.009483,-4.84593,-32.023624,-18.573044
2020-05-11 13:23:48.039306,-0.029591,-1.024909,0.030703,0.017088,0.033948,-0.00368,-4.772698,-31.665918,-18.752275
2020-05-11 13:23:48.092386,0.018856,-1.019299,0.076773,0.0009,0.177654,-0.008414,-4.848514,-31.349258,-18.985733
2020-05-11 13:23:48.145243,0.007867,-1.025525,0.033502,0.01017,0.176013,-0.007248,-4.769166,-31.065437,-19.166687
2020-05-11 13:23:48.198260,0.05673,-1.027991,0.118765,0.001465,0.378209,-0.013051,-4.565687,-31.033541,-19.41605
2020-05-11 13:23:48.251041,0.021803,-1.011778,0.187048,0.018112,0.07293,-0.009691,-4.358105,-31.069012,-19.525469
2020-05-11 13:23:48.304047,-0.055576,-1.019977,0.088518,-0.003269,0.065141,-0.004194,-4.141639,-31.353537,-19.58976
2020-05-11 13:23:48.356914,-0.00987,-1.016833,0.025287,0.008796,-0.095517,0.003442,-3.794866,-31.642145,-19.446522
2020-05-11 13:23:48.409998,0.03058,-1.021888,0.054438,0.01677,-0.055279,-0.012764,-3.332648,-31.842537,-19.779383
2020-05-11 13:23:48.462802,0.018979,-1.013196,0.054499,0.007353,-0.101267,0.003901,-2.761273,-32.149223,-19.961411
2020-05-11 13:23:48.515706,-0.000381,-1.022751,0.059245,0.010061,0.04383,-0.010549,-2.192173,-32.571434,-19.799047
2020-05-11 13:23:48.568530,0.055809,-1.032799,0.096673,-0.020483,0.385151,-0.001081,-1.647293,-33.018982,-19.584896
2020-05-11 13:23:48.621453,-0.025746,-1.029717,0.030946,0.012351,0.017104,-0.013298,-1.222589,-33.352627,-19.561758
2020-05-11 13:23:48.675889,-0.011978,-1.025895,0.058941,0.007806,0.126515,-0.004293,-0.826826,-33.491467,-19.22945
2020-05-11 13:23:48.728634,0.009956,-1.013997,0.074886,0.00917,-0.132209,0.003084,-0.308616,-33.407379,-18.678862
2020-05-11 13:23:48.781438,-0.051607,-1.0246,0.096247,0.006421,-0.035692,-0.001039,-0.062047,-33.242527,-18.113453
2020-05-11 13:23:48.834242,0.000115,-1.039149,-0.010821,0.019249,0.026005,-0.015394,0.202407,-33.019165,-17.841269
2020-05-11 13:23:48.887202,-0.009436,-1.014675,0.059306,0.002603,-0.233765,0.005222,0.352371,-32.858772,-17.356213
2020-05-11 13:23:48.940211,-0.05353,-1.029162,0.066488,0.001687,-0.794234,0.024006,0.416342,-32.669468,-17.066957
2020-05-11 13:23:48.993014,0.001231,-1.010422,0.061254,-0.026566,0.413294,-0.000886,0.932319,-32.402149,-16.475267
2020-05-11 13:23:49.046028,0.045988,-1.014306,0.071721,0.00581,0.509047,-0.018296,1.0931,-32.066319,-16.333145
2020-05-11 13:23:49.099178,-0.023824,-1.037423,-0.001979,0.036659,-0.249953,-0.006995,1.064926,-31.602491,-16.303707
2020-05-11 13:23:49.152159,0.011552,-0.971092,0.016645,-0.047793,0.061436,0.015149,1.283186,-31.310715,-16.245291
2020-05-11 13:23:49.204997,-0.051545,-1.064485,0.098134,0.039255,-0.179551,-0.018449,1.328994,-31.29685,-16.143353
2020-05-11 13:23:49.258112,0.015603,-0.954818,0.038249,-0.019388,-0.179856,0.017134,1.37124,-31.194277,-16.256472
2020-05-11 13:23:49.310959,-0.038025,-1.06017,0.064297,0.037575,-0.279275,-0.010508,1.589838,-31.002439,-16.358589
2020-05-11 13:23:49.363856,0.061088,-1.0246,0.128441,-0.043823,0.330369,0.020188,1.512715,-31.031933,-16.521639
2020-05-11 13:23:49.416745,0.00582,-1.052587,0.064236,0.049334,-0.275609,-0.027154,1.501418,-30.93965,-16.303415
2020-05-11 13:23:49.469690,-0.019793,-1.023306,0.15102,-0.042906,-0.039204,0.020188,1.733179,-30.914614,-16.323507
2020-05-11 13:23:49.522536,0.022539,-1.010484,-0.011366,0.101869,0.319832,0.002168,1.716989,-30.662832,-16.20302
2020-05-11 13:23:49.575452,-0.032196,-1.053944,0.017497,0.08171,-0.00805,-0.048992,1.827236,-30.583382,-16.164742
2020-05-11 13:23:49.628250,-0.017188,-1.025463,0.056324,-0.003048,0.007985,0.006139,1.921034,-30.477131,-16.22419
2020-05-11 13:23:49.683262,-0.005157,-1.020717,0.05888,0.005912,0.017167,-0.008091,1.861673,-30.422623,-16.106133
2020-05-11 13:23:49.736108,-0.00863,-1.033231,0.056568,-0.006243,0.017333,0.002956,1.819783,-30.21435,-15.892561
2020-05-11 13:23:49.788965,-0.009622,-1.020778,0.061193,-0.020355,0.016312,0.015553,1.926272,-30.017239,-16.035501
2020-05-11 13:23:49.841804,-0.081375,-1.024415,0.064905,-0.033488,0.021352,0.031283,2.033863,-29.926636,-16.181814
2020-05-11 13:23:49.894722,-0.102337,-1.007463,0.071478,-0.030453,0.011487,0.014592,2.108736,-29.933437,-16.342447
2020-05-11 13:23:49.947549,-0.065065,-1.033724,0.056507,-0.021466,0.025276,0.01012,2.359034,-29.823002,-16.241417
2020-05-11 13:23:50.000384,-0.054398,-1.010607,0.103307,-0.0065,0.016266,0.003553,2.587272,-29.704159,-16.372696
2020-05-11 13:23:50.053167,-0.066429,-1.00734,0.120226,-0.021341,0.039196,0.006682,2.993863,-29.5359,-16.498058
2020-05-11 13:23:50.106081,-0.053096,-1.01745,0.067096,-0.07861,0.030797,0.006529,3.307936,-29.456182,-16.952822
2020-05-11 13:23:50.158900,-0.060972,-1.022751,0.025591,-0.007343,-0.013927,0.001292,3.682394,-29.489988,-16.930197
2020-05-11 13:23:50.211752,-0.028723,-1.026142,0.082798,-0.001387,0.019365,0.002209,4.27316,-29.498737,-16.761011
2020-05-11 13:23:50.264562,-0.050925,-1.061587,0.09856,-0.036033,0.029349,0.002873,5.031374,-29.6887,-16.532684
2020-05-11 13:23:50.317515,-0.004102,-1.047902,0.075373,-0.0707,-0.008372,0.004706,5.598744,-30.212694,-16.010077
2020-05-11 13:23:50.370338,0.017506,-1.0201,0.077929,-0.032175,-0.032451,0.002925,6.20944,-30.790459,-15.754701
2020-05-11 13:23:50.423577,0.002037,-1.030518,0.097708,0.052454,0.045839,0.003123,6.720397,-31.630795,-15.163964
2020-05-11 13:23:50.476408,-0.047638,-1.002778,-0.026445,0.135379,0.007812,-0.00039,7.050763,-32.778767,-15.074905
2020-05-11 13:23:50.529240,0.009342,-1.040258,0.059124,0.146069,0.031636,0.002665,7.191856,-34.258232,-14.817704
2020-05-11 13:23:50.582018,-0.017622,-1.022566,0.08651,0.010404,0.025119,0.000804,6.95753,-35.624771,-14.609037
2020-05-11 13:23:50.634916,-0.02649,-1.018991,0.044031,0.010352,0.006862,0.001663,6.602069,-36.864372,-14.520554
2020-05-11 13:23:50.687685,0.001665,-1.015847,0.022365,0.007202,-0.015658,0.001903,6.138501,-37.868248,-14.504972
2020-05-11 13:23:50.740562,0.022417,-1.031505,0.027903,0.010505,0.019113,0.000659,5.823646,-38.756733,-14.727854
2020-05-11 13:23:50.793321,-0.048072,-1.022936,0.059854,-3.2E-05,0.006743,0.002949,5.123762,-39.656582,-14.714395
2020-05-11 13:23:50.846129,-0.004784,-1.023984,0.094117,0.007756,-0.001504,0.000964,4.703855,-40.156906,-14.880864
2020-05-11 13:23:50.898867,-0.021405,-1.021518,0.103672,0.000412,-0.008244,0.004623,4.115929,-40.697437,-15.080867
2020-05-11 13:23:50.951671,-0.071018,-1.053019,0.071539,0.003466,0.023521,0.003095,3.684788,-41.239639,-15.293169
2020-05-11 13:23:51.004453,-0.017374,-0.992237,0.251314,0.000412,0.019856,0.003248,3.407076,-41.447746,-15.335167
2020-05-11 13:23:51.057272,0.02524,-1.013566,0.089675,0.005757,0.009624,0.000499,3.179306,-41.864285,-15.740673
2020-05-11 13:23:51.110041,0.04298,-1.041676,-0.007672,0.002397,0.070099,-0.000875,3.12029,-41.935268,-15.835541
2020-05-11 13:23:51.162878,0.025302,-1.009682,0.038675,0.005146,-0.010077,0.00279,3.073077,-42.333584,-16.059616
2020-05-11 13:23:51.215706,0.033036,-1.022073,0.066427,0.003203,0.038828,-0.000108,3.091307,-42.676632,-16.369627
2020-05-11 13:23:51.268519,0.060904,-1.056224,0.011593,0.006257,0.031192,-0.001177,3.105891,-43.091343,-16.405531
2020-05-11 13:23:51.321277,0.007743,-1.018682,0.12266,0.003203,0.016684,0.000808,2.932758,-43.648766,-16.486553
2020-05-11 13:23:51.374101,0.001169,-1.028299,0.092231,0.005901,-0.007049,0.001667,2.536652,-44.387447,-16.79253
2020-05-11 13:23:51.426942,-0.071949,-1.01036,0.058272,0.00193,0.005779,0.001056,2.370966,-44.83812,-16.456207
2020-05-11 13:23:51.479832,0.016462,-1.012333,0.152054,0.002694,0.001197,-1.3E-05,2.048018,-45.277943,-16.599733
2020-05-11 13:23:51.532592,0.05053,-1.025094,0.09576,0.009413,0.026701,-0.001693,1.70006,-45.428539,-16.865641
2020-05-11 13:23:51.585413,-0.01601,-1.028299,0.094117,0.011399,-0.01102,0.00182,1.539293,-45.506325,-16.895319
2020-05-11 13:23:51.638130,-0.000257,-1.030703,0.096856,-0.008763,0.003667,0.003383,0.95148,-45.489269,-16.657564
2020-05-11 13:23:51.690999,-0.056755,-1.018128,0.086814,-0.000211,0.029629,-0.001656,0.649229,-45.396343,-16.728859
2020-05-11 13:23:51.743793,-0.028041,-1.014737,0.07233,0.008506,0.002364,-0.000273,0.435429,-45.273212,-16.536018
2020-05-11 13:23:51.796691,0.048995,-1.0201,0.075556,0.010339,0.01397,-0.000883,0.292388,-45.34547,-16.628716
2020-05-11 13:23:51.849462,-0.020103,-1.026265,0.068618,0.020876,-0.015962,0.002629,0.166756,-45.305698,-16.508204
2020-05-11 13:23:51.902253,0.551413,-0.931208,0.050299,0.002092,0.020995,0.000186,0.01585,-45.103115,-16.275234
2020-05-11 13:23:51.955109,0.007743,-1.02084,0.071052,-0.001115,0.017177,-0.000578,-0.211275,-44.928852,-16.004599
2020-05-11 13:23:52.007927,0.007681,-1.02158,0.070261,0.00527,0.011438,0.001213,-0.448975,-44.819935,-16.008909
2020-05-11 13:23:52.060739,0.000487,-1.021518,0.071478,-0.004206,0.010761,0.001615,-0.538335,-44.970654,-16.061752
2020-05-11 13:23:52.113545,-0.000505,-1.021456,0.065879,-0.003623,0.012322,0.00289,-0.615422,-45.036339,-15.950034
2020-05-11 13:23:52.166390,-0.012289,-1.027066,0.000383,-0.019658,0.176339,-0.000317,-0.604293,-45.058392,-15.939109
2020-05-11 13:23:52.219654,0.013455,-1.033785,0.106289,-0.313485,0.4468,-0.010549,-0.628989,-45.167515,-16.119226
2020-05-11 13:23:52.272486,0.002471,-1.008758,0.08511,-0.136181,0.299887,-0.019865,-0.598346,-45.321903,-15.89432
2020-05-11 13:23:52.325376,-0.000753,-1.032368,0.083285,0.030452,-0.050387,0.000432,-0.562631,-45.549091,-16.187996
2020-05-11 13:23:52.378163,0.002968,-0.994764,0.083832,-0.21924,-0.104754,0.010053,-0.59566,-45.663757,-16.109138
2020-05-11 13:23:52.431001,-0.000629,-1.021826,0.100629,-0.067554,-0.085466,0.008094,-0.504483,-45.712795,-16.435394
2020-05-11 13:23:52.483847,0.004766,-1.021456,0.100447,-0.202402,-0.086383,0.009316,-0.442741,-45.703236,-16.742887
2020-05-11 13:23:52.536711,0.049057,-1.025155,0.200559,-0.531659,-0.201378,0.020769,-0.214148,-45.719986,-16.823267
2020-05-11 13:23:52.589542,-0.001622,-0.992853,0.241151,-0.888862,-0.587139,0.094684,0.147927,-45.599213,-16.49823
2020-05-11 13:23:52.642389,-0.049623,-0.960551,0.067827,-0.213398,-0.448473,0.084605,0.633587,-45.630669,-16.055151
2020-05-11 13:23:52.695247,-0.030521,-1.047409,0.067887,2.395913,0.956059,-0.142485,1.134115,-45.228916,-15.819815
2020-05-11 13:23:52.748148,0.032606,-1.05493,0.259348,0.761238,0.826097,-0.033598,1.444937,-44.376923,-16.357927
2020-05-11 13:23:52.801157,0.007991,-1.013443,0.028573,-0.085727,-0.385248,0.010232,1.615195,-43.494068,-17.201002
2020-05-11 13:23:52.854052,-0.000567,-1.025278,0.051882,0.212528,-0.001014,0.001374,1.874601,-43.129314,-17.5791
2020-05-11 13:23:52.907105,0.021128,-1.027498,0.054194,0.004673,0.062351,-0.003248,2.115726,-42.599659,-18.125641
2020-05-11 13:23:52.960040,-0.050739,-1.027005,-0.020147,0.010781,0.009206,0.004082,2.303026,-42.236923,-18.307188
2020-05-11 13:23:53.013261,0.004456,-1.020039,0.091622,0.006964,-0.068832,0.003472,2.329666,-41.952835,-18.164778
2020-05-11 13:23:53.066210,-0.007761,-1.008634,0.063201,0.000679,-0.019593,0.001289,2.182978,-42.079292,-18.629049
2020-05-11 13:23:53.119027,0.031317,-1.057519,0.030886,0.006635,-0.023105,0.002816,1.897628,-42.223148,-19.052767
2020-05-11 13:23:53.171868,0.030089,-1.007216,0.234213,-0.008026,0.106551,-0.003445,1.876548,-42.399223,-19.377213
2020-05-11 13:23:53.224871,-0.141097,-1.058382,-0.162949,0.001748,-0.082054,0.007856,1.495683,-42.631565,-19.66873
2020-05-11 13:23:53.277745,0.154144,-1.030272,0.189482,0.004802,-0.112139,0.004496,1.302992,-42.854031,-20.000732
2020-05-11 13:23:53.331022,-0.101779,-1.028854,-0.108626,-0.025588,-0.209572,0.005565,1.008839,-42.940521,-20.382555
2020-05-11 13:23:53.383935,0.096383,-1.001853,-0.042797,0.014423,0.376095,-0.011692,0.891116,-42.924332,-20.926266
2020-05-11 13:23:53.437196,0.029598,-1.006107,0.155767,-0.001001,0.021488,0.001442,0.640138,-42.844292,-21.259541
2020-05-11 13:23:53.490133,-0.010428,-1.018806,0.078598,0.006635,0.005758,0.005718,0.652156,-42.829052,-21.668531
2020-05-11 13:23:53.542920,-0.057251,-1.006538,0.064723,0.006709,0.032582,0.001541,0.70097,-42.536316,-21.923086
2020-05-11 13:23:53.595842,0.012411,-1.011347,0.042875,0.014345,0.145897,-0.002735,0.583221,-42.424103,-22.396944
2020-05-11 13:23:53.648664,0.001169,-1.029594,0.097465,0.002433,-0.020716,0.000625,0.601022,-42.206257,-22.967796
2020-05-11 13:23:53.701507,0.014253,-1.004381,0.110853,-0.00193,0.078588,0.006214,0.632063,-41.836819,-22.88986
2020-05-11 13:23:53.754352,0.027511,-1.000805,0.126798,-0.024157,0.012785,0.018998,0.780096,-41.492477,-22.923393
2020-05-11 13:23:53.807314,0.059553,-1.013812,0.068861,-0.034236,0.012021,0.017624,0.848122,-41.302387,-23.403482
2020-05-11 13:23:53.860121,-0.06308,-1.033416,-0.060238,-0.030265,-0.659625,0.037324,0.941743,-40.796585,-23.32267
2020-05-11 13:23:53.912997,-0.090058,-1.039087,-0.028807,0.039068,0.244914,0.000367,1.212639,-40.51392,-23.830408
2020-05-11 13:23:53.966475,-0.153005,-1.032553,-0.151382,0.020742,-0.623584,0.025259,1.390157,-40.360973,-23.821108
2020-05-11 13:23:54.019360,0.019593,-1.002161,0.178406,0.06335,0.006218,0.013653,1.218571,-40.147133,-23.921173
2020-05-11 13:23:54.072188,0.011306,-1.047594,0.041171,-0.030113,0.114494,-0.001161,1.232502,-39.829693,-24.021564
2020-05-11 13:23:54.125111,0.02745,-1.027806,0.082615,0.045442,0.089715,0.007293,1.114847,-39.557442,-24.206476
2020-05-11 13:23:54.177955,0.025915,-1.016525,0.175972,0.004209,0.268393,-0.003092,1.048723,-39.284752,-24.188789
2020-05-11 13:23:54.230860,0.053783,-1.000929,0.138179,-0.069892,-0.136781,0.005721,1.007023,-38.975121,-23.985781
2020-05-11 13:23:54.283708,0.021619,-1.027991,0.176945,-0.101504,-0.052177,0.013051,0.979264,-38.977463,-24.105211
2020-05-11 13:23:54.336722,0.020084,-0.994641,0.200193,0.088169,1.087698,-0.029404,1.029856,-38.796375,-23.953785
2020-05-11 13:23:54.389539,-0.051855,-1.041615,-0.027354,-0.069587,-0.719089,0.012746,1.00313,-38.596615,-23.574053
2020-05-11 13:23:54.442425,0.090367,-1.021641,0.021087,0.491188,0.630465,0.019313,0.802549,-38.363621,-23.328377
2020-05-11 13:23:54.495708,0.088771,-1.03958,0.058333,0.222865,0.888098,-0.005427,0.854885,-38.256512,-23.492123
2020-05-11 13:23:54.548816,0.016156,-1.007401,0.052247,0.018073,0.040675,-0.020088,0.846353,-37.865883,-23.893332
2020-05-11 13:23:54.601626,0.035061,-1.027744,0.016888,0.290824,0.04602,0.006637,0.828328,-37.644863,-23.891787
2020-05-11 13:23:54.654539,-0.004598,-1.023614,0.023704,-0.283237,-0.590654,-0.028487,0.875507,-37.571728,-24.239214
2020-05-11 13:23:54.707419,0.020882,-1.016771,0.191308,-0.437633,-0.287207,-0.043759,0.778851,-37.562008,-24.398029
2020-05-11 13:23:54.760265,0.005324,-0.986812,0.016523,-0.094632,0.009826,-0.004053,0.925526,-37.590824,-24.49893
2020-05-11 13:23:54.813081,0.014498,-1.043772,0.049691,-0.090967,0.009979,-0.015354,0.970066,-37.662666,-24.643574
2020-05-11 13:23:54.865985,0.005448,-1.047779,0.057298,-0.018698,0.008465,-0.013956,1.145698,-37.775032,-24.872604
2020-05-11 13:23:54.918806,0.007061,-1.02571,0.067522,-0.000212,0.006559,-0.008619,1.179804,-37.669762,-24.736219
2020-05-11 13:23:54.971657,0.006441,-1.016032,0.048656,-0.040064,0.008112,-0.00346,1.145488,-37.713619,-24.763672
2020-05-11 13:23:55.024488,0.012473,-1.021826,0.045431,-0.111951,0.002527,-0.059591,1.050836,-37.718212,-24.503798
2020-05-11 13:23:55.077408,-0.001808,-0.983976,0.1879,-0.459686,-0.030918,-0.172448,0.980714,-37.90485,-24.359819
2020-05-11 13:23:55.130262,0.079134,-1.021641,0.061741,0.038322,-0.001291,-0.05058,0.818216,-38.078556,-24.360859
2020-05-11 13:23:55.183155,-0.124229,-1.035697,0.120104,0.048248,0.001153,0.020738,0.738618,-37.991867,-24.140871
2020-05-11 13:23:55.235971,-0.068104,-0.994764,0.154793,0.024272,-0.016715,0.042882,0.63014,-38.288441,-24.017179
2020-05-11 13:23:55.288847,0.017199,-0.976579,0.05602,0.021065,0.015203,0.021807,0.554557,-38.354935,-23.555035
2020-05-11 13:23:55.341623,0.012902,-1.054991,0.104768,-0.001995,0.011079,0.100762,0.505291,-38.255661,-22.781452
2020-05-11 13:23:55.394561,0.011736,-0.963757,0.044396,0.003044,0.021464,0.118782,0.695478,-38.157944,-22.761124
2020-05-11 13:23:55.447395,-0.057995,-1.013196,0.166965,-0.06186,0.025893,0.151616,0.814028,-37.963894,-22.396198
2020-05-11 13:23:55.500199,0.039358,-1.059553,0.062228,-0.005202,0.021464,0.008063,1.088067,-37.991619,-22.327984
2020-05-11 13:23:55.552951,0.020821,-1.012703,0.10848,0.067185,0.007872,-0.018052,1.060899,-38.007698,-22.261789
2020-05-11 13:23:55.605837,0.007743,-1.004751,0.257339,0.028853,0.008483,-0.00782,1.156765,-37.770512,-22.293095
2020-05-11 13:23:55.658599,0.02211,-1.022135,0.08298,0.012971,0.004207,-0.000184,1.166257,-37.59906,-22.199013
2020-05-11 13:23:55.711820,-0.015885,-1.0156,0.116209,0.002892,-0.031681,-0.001253,1.190651,-37.510689,-22.033676
2020-05-11 13:23:55.764592,0.004208,-1.024847,0.033563,0.04779,0.000237,-0.006903,1.198966,-37.391201,-21.866539
2020-05-11 13:23:55.817485,-0.002676,-0.995011,0.098317,0.018927,-0.010454,-0.00446,1.412818,-37.234623,-21.860672
2020-05-11 13:23:55.870270,0.042366,-1.003579,0.056994,0.002892,0.003138,0.006536,1.2815,-37.036175,-21.722324
2020-05-11 13:23:55.923166,0.043778,-1.039765,0.057907,0.021544,0.011005,-0.002835,1.338845,-36.840824,-21.756924
2020-05-11 13:23:55.975977,-0.01049,-1.008511,-0.02481,0.015588,-0.000143,-0.004209,1.401521,-36.666248,-21.366207
2020-05-11 13:23:56.028807,-0.025002,-1.037792,0.168547,0.0191,0.022459,-0.01154,1.412462,-36.477798,-21.216343
2020-05-11 13:23:56.081566,0.065691,-1.031875,0.055716,0.03987,-0.006863,-0.014441,1.186015,-36.284348,-21.192333
2020-05-11 13:23:56.134362,0.137141,-1.045621,0.099108,0.025514,-0.011291,-0.004057,1.088857,-36.038101,-20.920345
2020-05-11 13:23:56.187196,-0.027855,-1.02423,0.078659,0.013144,-0.001365,-0.005278,0.820731,-35.981377,-20.34247
2020-05-11 13:23:56.240050,-0.003854,-1.021765,0.098499,0.021859,0.043411,-0.00776,0.60063,-35.826221,-19.949902
2020-05-11 13:23:56.292818,0.016708,-1.02195,0.085415,0.030578,0.002991,-0.007058,0.194949,-35.6838,-19.548681
2020-05-11 13:23:56.345666,0.006937,-1.008573,0.133493,0.013169,0.003755,-0.002629,-0.107195,-35.630852,-19.6984
2020-05-11 13:23:56.398448,-0.021467,-1.038471,0.114201,0.003282,0.005253,-0.013614,-0.444111,-35.588493,-19.574112
2020-05-11 13:23:56.451278,0.02966,-1.009929,0.089979,0.035963,0.00281,-0.019417,-0.736044,-35.475319,-19.448532
2020-05-11 13:23:56.504063,-0.077096,-1.01671,0.051212,0.034741,0.000672,-0.004756,-1.05359,-35.506756,-19.228941
2020-05-11 13:23:56.556912,-0.03108,-1.007031,0.076955,-0.01031,0.009377,0.000131,-1.246027,-35.379436,-19.311859
2020-05-11 13:23:56.609694,-0.110833,-1.020963,0.085841,0.002365,0.012737,0.004712,-1.567976,-35.33247,-19.006287
2020-05-11 13:23:56.662537,-0.013653,-1.032306,0.066305,0.036421,0.002352,-0.005367,-1.528736,-35.355885,-19.151169
2020-05-11 13:23:56.715332,0.030519,-1.032183,0.08298,0.033288,0.003307,-0.012127,-1.799743,-35.277035,-19.307753
2020-05-11 13:23:56.768153,0.060535,-1.032491,0.072999,0.038083,-0.002118,-0.005522,-2.14535,-35.354229,-19.450453
2020-05-11 13:23:56.820925,0.033036,-1.010853,0.094361,0.013342,0.024082,-0.003124,-2.461034,-35.415985,-19.137501
2020-05-11 13:23:56.873807,0.06029,-1.030642,0.072147,0.009944,-0.009936,0.001409,-2.651982,-35.270229,-18.672131
2020-05-11 13:23:56.926602,-0.034367,-1.041306,0.042935,-0.032053,0.016942,0.00538,-2.720741,-35.428066,-18.790867
2020-05-11 13:23:56.979467,-0.055328,-1.01184,0.090831,-0.0797,0.024272,0.002478,-2.770147,-35.664116,-18.647604
2020-05-11 13:23:57.032221,0.012718,-1.019607,0.079024,-0.005327,0.002128,-0.000881,-2.916073,-35.78587,-18.51556
2020-05-11 13:23:57.085041,0.00836,-1.042601,0.057298,0.036038,0.004124,-0.000262,-3.116813,-35.883274,-18.529051
2020-05-11 13:23:57.137818,0.00272,-1.022258,0.07872,0.045023,0.003544,-0.000991,-3.266205,-36.003887,-18.824587
2020-05-11 13:23:57.190619,0.000611,-1.023491,0.079511,0.023445,0.002983,-0.00893,-3.284919,-36.112576,-19.00581
2020-05-11 13:23:57.243362,0.007123,-1.0156,0.083102,0.047612,-0.029447,-0.003613,-3.36149,-36.181229,-18.953213
2020-05-11 13:23:57.296192,0.001169,-1.023737,0.076955,0.015319,-0.004107,-0.00113,-3.181947,-36.083683,-19.172632
2020-05-11 13:23:57.348983,-0.001622,-1.007833,0.117,0.049205,0.008135,-0.011279,-3.256712,-35.999546,-19.388845
2020-05-11 13:23:57.401792,0.006317,-1.013689,0.194047,-0.01799,0.046773,0.001549,-3.193324,-36.078609,-19.20734
2020-05-11 13:23:57.455245,0.016033,-1.01184,0.064723,-0.026848,0.548293,-0.019067,-3.209814,-35.916203,-19.219036
2020-05-11 13:23:57.508108,0.010999,-1.011347,0.122538,-0.004398,0.495606,-0.010973,-3.116606,-35.841167,-19.240015
2020-05-11 13:23:57.560843,0.020452,-1.026635,0.066792,0.011026,0.35755,-0.019678,-3.37244,-35.701855,-19.024355
2020-05-11 13:23:57.613653,-0.009188,-1.029717,0.057785,0.011544,0.124489,-0.010312,-3.515507,-35.444035,-19.00001
2020-05-11 13:23:57.666462,-0.006087,-1.031505,0.07093,0.020017,-0.053859,-0.00244,-3.65236,-35.268272,-18.855595
2020-05-11 13:23:57.719297,0.018365,-1.021272,0.095274,0.000775,-0.323251,0.00764,-3.918643,-35.030083,-19.039333
2020-05-11 13:23:57.772050,-0.022211,-1.02423,0.021635,-0.000142,-0.778651,0.02734,-4.165269,-34.809036,-18.881243
2020-05-11 13:23:57.824915,-0.02556,-1.065163,0.003835,0.028874,-0.616008,0.023675,-4.30097,-34.796867,-18.661793
2020-05-11 13:23:57.877660,-0.015823,-1.031381,0.128502,-0.003501,-0.037519,0.0026,-4.387131,-34.488293,-18.169531
2020-05-11 13:23:57.930599,0.023583,-1.021395,-0.063993,0.002913,-0.088221,0.004127,-4.388859,-34.454887,-18.104046
2020-05-11 13:23:57.983367,-0.015265,-1.018621,0.179867,-0.001516,0.059151,0.001989,-4.418242,-34.190311,-18.156258
2020-05-11 13:23:58.036197,-0.057437,-1.017203,-0.011426,-0.005945,-0.032632,0.002294,-4.352148,-34.015244,-18.180593
2020-05-11 13:23:58.088954,-0.078895,-1.037977,0.111584,0.000927,0.1378,-0.002745,-4.416873,-33.643436,-18.147762
2020-05-11 13:23:58.141857,0.123453,-1.040197,0.034476,-0.038779,0.380313,-0.034205,-4.603054,-33.297199,-18.266773
2020-05-11 13:23:58.194598,-0.118585,-1.001977,0.182788,0.032845,-0.161524,0.001073,-4.785598,-32.837246,-18.411377
2020-05-11 13:23:58.247491,0.016892,-1.070156,0.032772,-0.003349,0.166205,-0.013588,-4.881233,-32.3839,-18.736258
2020-05-11 13:23:58.300273,0.029046,-1.022135,0.119617,0.01513,-0.002699,0.008861,-4.918541,-31.996828,-18.923525
2020-05-11 13:23:58.353108,-0.028351,-1.025648,0.082433,-0.01465,0.060678,-0.001523,-4.662788,-31.754259,-19.192465
2020-05-11 13:23:58.405894,-0.008568,-1.02682,0.101907,0.010701,0.214921,-0.006716,-4.430185,-31.468721,-19.195513
2020-05-11 13:23:58.460542,0.009772,-1.016093,0.108602,0.006654,-0.080999,0.006056,-4.400903,-31.179304,-19.43911
2020-05-11 13:23:58.513304,0.006441,-1.014737,0.137327,-0.010603,0.351341,-0.008605,-4.360678,-30.996559,-19.706625
2020-05-11 13:23:58.566209,-0.026428,-1.022998,0.041657,0.003752,0.098443,-0.007383,-4.110097,-30.990635,-19.662046
2020-05-11 13:23:58.618982,0.073119,-1.066519,0.059428,-0.002662,0.157086,-0.008146,-3.691232,-30.991995,-19.751322
2020-05-11 13:23:58.671819,-0.021343,-1.026696,-0.000404,0.011694,-0.227606,0.002238,-3.473741,-31.273626,-19.700708
2020-05-11 13:23:58.724575,0.03058,-1.024909,0.114505,8.7E-05,-0.340616,0.007889,-2.974947,-31.450142,-19.480076
2020-05-11 13:23:58.777474,-0.055204,-1.022011,0.053038,-0.002509,-0.054732,0.007431,-2.161513,-31.963379,-19.399452
2020-05-11 13:23:58.830286,-0.006025,-1.027991,0.036241,0.01261,-0.193245,-0.001885,-1.706765,-32.264191,-19.160622
2020-05-11 13:23:58.883138,0.048259,-1.01634,0.091318,-0.015643,0.137386,-0.00219,-0.934167,-32.498741,-18.847525
2020-05-11 13:23:58.935960,0.015542,-0.98373,0.114505,-0.009534,0.219852,-0.010284,-0.439288,-32.680283,-18.541843
2020-05-11 13:23:58.988818,0.036657,-1.041984,0.039832,0.008639,0.046672,-0.015629,0.135815,-32.75843,-18.056139
2020-05-11 13:23:59.041597,-0.072011,-1.05493,0.037884,0.016733,-0.044805,-0.002954,0.523097,-32.900234,-17.836096
2020-05-11 13:23:59.094495,-0.04646,-1.027066,-0.032017,-0.009687,-0.346878,0.006362,1.012123,-32.818516,-17.567083
2020-05-11 13:23:59.147908,-0.029963,-1.030025,0.014819,0.010319,-0.454848,0.007889,1.168144,-32.631165,-17.23856
2020-05-11 13:23:59.200647,0.034448,-1.018867,0.092231,-0.01381,0.13311,0.006514,1.35456,-32.475185,-16.900196
2020-05-11 13:23:59.253413,-0.014459,-1.018189,-0.048066,0.053232,-0.128799,-0.011964,1.442093,-31.892992,-16.458078
2020-05-11 13:23:59.306272,0.052801,-1.012025,0.150594,-0.013352,0.50024,0.000406,1.54572,-31.573608,-15.747005
2020-05-11 13:23:59.359027,0.002285,-1.031936,0.051273,0.047735,-0.374214,-0.003107,1.701421,-31.324202,-15.573298
2020-05-11 13:23:59.411860,0.012534,-1.028422,0.128867,-0.002509,0.076146,0.011401,1.506782,-31.20396,-15.597042
2020-05-11 13:23:59.464668,-0.00435,-0.998894,0.04324,8.7E-05,0.061944,-0.001274,1.636671,-31.010187,-15.424273
2020-05-11 13:23:59.517558,0.000301,-1.023429,0.037276,0.046971,-0.187137,-0.023876,1.650982,-30.952747,-15.602759
2020-05-11 13:23:59.570325,0.069988,-0.973003,0.007953,-0.035496,0.082255,0.022244,1.774431,-30.797018,-15.579934
2020-05-11 13:23:59.623128,-0.002428,-1.043525,0.087119,0.020246,0.00834,-0.004787,1.81159,-30.739521,-15.988786
2020-05-11 13:23:59.675954,0.000921,-0.979476,0.003774,0.181056,0.04377,-0.026167,1.919717,-30.534956,-16.10667
