Time, AccX(g), AccY(g), AccZ(g), GyrX(rad/s), GyrY(rad/s), GyrZ(rad/s), Roll(deg), Pitch(deg), Yaw(deg), Heading, X, Y, Z, Vx, Vy, Vz, AccX, AccY, AccZ, RollAcc, PitchAcc
0.000000, 0.023261, 0.018717, 5.872427, -0.007051, 0.002756, 0.004128, 0.182560, 0.226956, 0.226956, 95.141303, 0.000000, 0.000000, 0.000000, 0.000000, 0.000000, 0.000000, 0.038769, 0.031196, 9.787378, 0.182620, 0.226954
0.050000, 0.030412, 0.026923, 8.220680, -0.005829, -0.001367, 0.005960, 0.177172, 0.217286, 0.217286, 93.332447, 0.000000, 0.000000, 0.000000, 0.000000, 0.000000, 0.000000, 0.035179, 0.032393, 9.786181, 0.187641, 0.211959
0.100000, 0.034708, 0.030205, 9.164289, -0.005066, 0.000160, 0.008862, 0.173746, 0.217180, 0.217180, 98.170508, 0.000000, 0.000000, 0.000000, 0.000000, 0.000000, 0.000000, 0.037572, 0.032393, 9.793362, 0.188839, 0.216995
0.150000, 0.033554, 0.033672, 9.537424, -0.009189, 0.004588, 0.004128, 0.169961, 0.219087, 0.219087, 96.174214, 0.000000, 0.000000, 0.000000, 0.000000, 0.000000, 0.000000, 0.032785, 0.035983, 9.786181, 0.202280, 0.201574
0.200000, 0.035247, 0.031468, 9.685960, -0.004608, 0.002603, 0.006877, 0.172404, 0.217864, 0.217864, 98.642803, 0.000000, 0.000000, 0.000000, 0.000000, 0.000000, 0.000000, 0.036375, 0.029999, 9.784985, 0.186143, 0.208496
0.250000, 0.038078, 0.030587, 9.745375, -0.007204, -0.002131, 0.007335, 0.168087, 0.213654, 0.213654, 100.189923, 0.000000, 0.000000, 0.000000, 0.000000, 0.000000, 0.000000, 0.039966, 0.029999, 9.784985, 0.179825, 0.223871
0.300000, 0.037775, 0.032388, 9.770577, -0.008273, 0.003367, 0.005808, 0.167928, 0.220800, 0.220800, 97.064042, 0.000000, 0.000000, 0.000000, 0.000000, 0.000000, 0.000000, 0.037572, 0.033589, 9.787378, 0.189927, 0.221513
0.350000, 0.039089, 0.035263, 9.779221, -0.006593, -0.000146, 0.005044, 0.177938, 0.221580, 0.221580, 99.191014, 0.000000, 0.000000, 0.000000, 0.000000, 0.000000, 0.000000, 0.039966, 0.037180, 9.784985, 0.206602, 0.229020
0.400000, 0.037461, 0.034977, 9.784834, -0.005219, 0.002145, 0.004586, 0.187743, 0.223546, 0.223546, 98.130102, 0.000000, 0.000000, 0.000000, 0.000000, 0.000000, 0.000000, 0.036375, 0.034786, 9.788575, 0.204808, 0.219353
0.450000, 0.037528, 0.035581, 9.788515, -0.006440, 0.000618, 0.007793, 0.193643, 0.221870, 0.221870, 98.615648, 0.000000, 0.000000, 0.000000, 0.000000, 0.000000, 0.000000, 0.037572, 0.035983, 9.790969, 0.208264, 0.219662
0.500000, 0.036836, 0.032232, 9.791423, -0.007662, 0.000160, 0.003670, 0.189847, 0.218501, 0.218501, 93.930176, 0.000000, 0.000000, 0.000000, 0.000000, 0.000000, 0.000000, 0.036375, 0.029999, 9.793362, 0.188606, 0.215551
0.550000, 0.032969, 0.033046, 9.794741, -0.000179, 0.002603, 0.005808, 0.203865, 0.214753, 0.214753, 99.436148, 0.000000, 0.000000, 0.000000, 0.000000, 0.000000, 0.000000, 0.030391, 0.033589, 9.796953, 0.193308, 0.192857
0.600000, 0.033577, 0.034090, 9.797504, -0.004150, -0.004269, 0.005960, 0.207252, 0.198075, 0.198075, 96.065887, 0.000000, 0.000000, 0.000000, 0.000000, 0.000000, 0.000000, 0.033982, 0.034786, 9.799346, 0.199358, 0.196355
0.650000, 0.035256, 0.035226, 9.797173, -0.009953, -0.001367, 0.006724, 0.198849, 0.194197, 0.194197, 97.729750, 0.000000, 0.000000, 0.000000, 0.000000, 0.000000, 0.000000, 0.036375, 0.035983, 9.796953, 0.206006, 0.206182
0.700000, 0.035210, 0.035680, 9.797041, -0.007509, -0.000298, 0.005502, 0.198471, 0.193631, 0.193631, 97.893344, 0.000000, 0.000000, 0.000000, 0.000000, 0.000000, 0.000000, 0.035179, 0.035983, 9.796953, 0.208666, 0.205913
0.750000, 0.038781, 0.036580, 9.799860, -0.003539, -0.001062, 0.006418, 0.208267, 0.196227, 0.196227, 99.688787, 0.000000, 0.000000, 0.000000, 0.000000, 0.000000, 0.000000, 0.041163, 0.037180, 9.801740, 0.213866, 0.226737
0.800000, 0.035902, 0.036222, 9.803861, -0.002622, 0.000160, 0.002295, 0.217642, 0.197686, 0.197686, 95.610551, 0.000000, 0.000000, 0.000000, 0.000000, 0.000000, 0.000000, 0.033982, 0.035983, 9.806527, 0.211686, 0.209815
0.850000, 0.036904, 0.036797, 9.803306, -0.004608, -0.002895, 0.006266, 0.221226, 0.193127, 0.193127, 94.775646, 0.000000, 0.000000, 0.000000, 0.000000, 0.000000, 0.000000, 0.037572, 0.037180, 9.802937, 0.215057, 0.215685
0.900000, 0.035151, 0.034872, 9.803803, -0.007204, 0.000618, 0.008098, 0.215913, 0.195734, 0.195734, 96.889233, 0.000000, 0.000000, 0.000000, 0.000000, 0.000000, 0.000000, 0.033982, 0.033589, 9.804134, 0.203800, 0.205427
0.950000, 0.035167, 0.031230, 9.804001, -0.007509, 0.000312, 0.003670, 0.206884, 0.197217, 0.197217, 98.300245, 0.000000, 0.000000, 0.000000, 0.000000, 0.000000, 0.000000, 0.035179, 0.028802, 9.804134, 0.182511, 0.205521
1.000000, 0.033020, 0.035518, 9.806235, -0.006746, -0.000451, 0.005044, 0.205534, 0.194459, 0.194459, 98.294156, 0.000000, 0.000000, 0.000000, 0.000000, 0.000000, 0.000000, 0.031588, 0.038377, 9.807724, 0.207523, 0.192926
1.050000, 0.036469, 0.037233, 9.804974, -0.008426, 0.001229, 0.004739, 0.202119, 0.199571, 0.199571, 96.374460, 0.000000, 0.000000, 0.000000, 0.000000, 0.000000, 0.000000, 0.038769, 0.038377, 9.804134, 0.217572, 0.213108
1.100000, 0.037131, 0.034329, 9.808778, -0.008426, -0.000909, 0.008556, 0.196554, 0.199392, 0.199392, 93.090089, 0.000000, 0.000000, 0.000000, 0.000000, 0.000000, 0.000000, 0.037572, 0.032393, 9.811315, 0.200522, 0.216891
1.150000, 0.034523, 0.033885, 9.807428, -0.007662, 0.002450, 0.005349, 0.193318, 0.205049, 0.205049, 101.309932, 0.000000, 0.000000, 0.000000, 0.000000, 0.000000, 0.000000, 0.032785, 0.033589, 9.806527, 0.197958, 0.201687
1.200000, 0.035635, 0.031553, 9.809760, -0.001095, 0.001229, 0.005044, 0.204500, 0.207841, 0.207841, 102.343821, 0.000000, 0.000000, 0.000000, 0.000000, 0.000000, 0.000000, 0.036375, 0.029999, 9.811315, 0.184292, 0.208129
1.250000, 0.035361, 0.032775, 9.809256, -0.008731, 0.001992, 0.005044, 0.196338, 0.211865, 0.211865, 92.208255, 0.000000, 0.000000, 0.000000, 0.000000, 0.000000, 0.000000, 0.035179, 0.033589, 9.808921, 0.191437, 0.206542
1.300000, 0.038124, 0.031828, 9.809773, -0.005371, 0.001840, 0.007182, 0.196798, 0.217200, 0.217200, 96.889233, 0.000000, 0.000000, 0.000000, 0.000000, 0.000000, 0.000000, 0.039966, 0.031196, 9.810118, 0.185892, 0.222668
1.350000, 0.036357, 0.034321, 9.814288, -0.011022, 0.004130, 0.004128, 0.185155, 0.226071, 0.226071, 97.541778, 0.000000, 0.000000, 0.000000, 0.000000, 0.000000, 0.000000, 0.035179, 0.035983, 9.817299, 0.200363, 0.212249
1.400000, 0.034932, 0.033164, 9.815376, -0.008273, 0.000007, 0.005808, 0.181034, 0.222376, 0.222376, 97.545898, 0.000000, 0.000000, 0.000000, 0.000000, 0.000000, 0.000000, 0.033982, 0.032393, 9.816102, 0.193587, 0.203907
1.450000, 0.035798, 0.033419, 9.817248, -0.004913, 0.001687, 0.007487, 0.186053, 0.223943, 0.223943, 96.142052, 0.000000, 0.000000, 0.000000, 0.000000, 0.000000, 0.000000, 0.036375, 0.033589, 9.818495, 0.195040, 0.208924
1.500000, 0.036144, 0.030649, 9.818715, -0.004913, 0.000312, 0.007946, 0.188451, 0.222076, 0.222076, 99.132894, 0.000000, 0.000000, 0.000000, 0.000000, 0.000000, 0.000000, 0.036375, 0.028802, 9.819692, 0.178846, 0.210914
1.550000, 0.037001, 0.032413, 9.815711, -0.009647, 0.000923, 0.005044, 0.179871, 0.222559, 0.222559, 97.785729, 0.000000, 0.000000, 0.000000, 0.000000, 0.000000, 0.000000, 0.037572, 0.033589, 9.813708, 0.189199, 0.215979
1.600000, 0.040934, 0.033837, 9.815945, -0.001401, 0.000618, 0.007029, 0.194144, 0.224908, 0.224908, 102.128388, 0.000000, 0.000000, 0.000000, 0.000000, 0.000000, 0.000000, 0.043556, 0.034786, 9.816102, 0.197505, 0.238931
1.650000, 0.038199, 0.035125, 9.816039, -0.003844, 0.000923, 0.004128, 0.201452, 0.225956, 0.225956, 98.130102, 0.000000, 0.000000, 0.000000, 0.000000, 0.000000, 0.000000, 0.036375, 0.035983, 9.816102, 0.205019, 0.222963
1.700000, 0.038541, 0.035640, 9.811050, -0.012549, -0.000298, 0.008709, 0.186162, 0.224010, 0.224010, 98.037615, 0.000000, 0.000000, 0.000000, 0.000000, 0.000000, 0.000000, 0.038769, 0.035983, 9.807724, 0.208131, 0.225074
1.750000, 0.036524, 0.033691, 9.808336, -0.003539, 0.001534, 0.005960, 0.194338, 0.225667, 0.225667, 99.132894, 0.000000, 0.000000, 0.000000, 0.000000, 0.000000, 0.000000, 0.035179, 0.032393, 9.806527, 0.196808, 0.213352
1.800000, 0.038589, 0.034348, 9.805815, -0.003844, 0.005199, 0.003059, 0.201279, 0.237792, 0.237792, 95.969023, 0.000000, 0.000000, 0.000000, 0.000000, 0.000000, 0.000000, 0.039966, 0.034786, 9.804134, 0.200696, 0.225475
1.850000, 0.040133, 0.031021, 9.805524, -0.010564, 0.000007, 0.006571, 0.188220, 0.236251, 0.236251, 95.432540, 0.000000, 0.000000, 0.000000, 0.000000, 0.000000, 0.000000, 0.041163, 0.028802, 9.805330, 0.181258, 0.234505
1.900000, 0.037879, 0.033998, 9.805408, -0.008273, 0.001992, 0.008098, 0.184165, 0.238613, 0.238613, 94.908096, 0.000000, 0.000000, 0.000000, 0.000000, 0.000000, 0.000000, 0.036375, 0.035983, 9.805330, 0.198658, 0.221333
1.950000, 0.037695, 0.034471, 9.804643, -0.003081, 0.001840, 0.009473, 0.194207, 0.240198, 0.240198, 96.952957, 0.000000, 0.000000, 0.000000, 0.000000, 0.000000, 0.000000, 0.037572, 0.034786, 9.804134, 0.201437, 0.220276
2.000000, 0.039776, 0.033942, 9.802901, -0.006593, 0.001381, 0.007487, 0.193902, 0.241606, 0.241606, 96.132222, 0.000000, 0.000000, 0.000000, 0.000000, 0.000000, 0.000000, 0.041163, 0.033589, 9.801740, 0.198381, 0.232477
2.050000, 0.038454, 0.035167, 9.804359, -0.003691, -0.000604, 0.007487, 0.201835, 0.236969, 0.236969, 95.844566, 0.000000, 0.000000, 0.000000, 0.000000, 0.000000, 0.000000, 0.037572, 0.035983, 9.805330, 0.205508, 0.224717
2.100000, 0.037207, 0.034938, 9.805660, -0.004913, 0.000007, 0.005808, 0.205722, 0.233632, 0.233632, 96.378186, 0.000000, 0.000000, 0.000000, 0.000000, 0.000000, 0.000000, 0.036375, 0.034786, 9.806527, 0.204148, 0.217401
2.150000, 0.037426, 0.035565, 9.806180, -0.009342, 0.002756, 0.005808, 0.198087, 0.237827, 0.237827, 97.104575, 0.000000, 0.000000, 0.000000, 0.000000, 0.000000, 0.000000, 0.037572, 0.035983, 9.806527, 0.207799, 0.218671
2.200000, 0.037514, 0.035816, 9.806388, -0.007051, 0.002909, 0.006571, 0.197270, 0.242036, 0.242036, 99.872939, 0.000000, 0.000000, 0.000000, 0.000000, 0.000000, 0.000000, 0.037572, 0.035983, 9.806527, 0.209259, 0.219179
2.250000, 0.038267, 0.035916, 9.806472, -0.004455, -0.002284, 0.004128, 0.203368, 0.232691, 0.232691, 98.684114, 0.000000, 0.000000, 0.000000, 0.000000, 0.000000, 0.000000, 0.038769, 0.035983, 9.806527, 0.209843, 0.223578
2.300000, 0.038568, 0.035956, 9.805069, -0.005524, 0.002298, 0.008098, 0.206169, 0.236272, 0.236272, 99.287868, 0.000000, 0.000000, 0.000000, 0.000000, 0.000000, 0.000000, 0.038769, 0.035983, 9.804134, 0.210108, 0.225370
2.350000, 0.036535, 0.034536, 9.807380, -0.003386, 0.001687, 0.007946, 0.213575, 0.236860, 0.236860, 95.138119, 0.000000, 0.000000, 0.000000, 0.000000, 0.000000, 0.000000, 0.035179, 0.033589, 9.808921, 0.201762, 0.213436
2.400000, 0.036439, 0.033968, 9.809023, -0.006135, 0.002603, 0.007793, 0.212826, 0.239687, 0.239687, 98.990191, 0.000000, 0.000000, 0.000000, 0.000000, 0.000000, 0.000000, 0.036375, 0.033589, 9.810118, 0.198410, 0.212843
2.450000, 0.038555, 0.034459, 9.809680, -0.004455, -0.000146, 0.005960, 0.216753, 0.236080, 0.236080, 96.611252, 0.000000, 0.000000, 0.000000, 0.000000, 0.000000, 0.000000, 0.039966, 0.034786, 9.810118, 0.201264, 0.225188
2.500000, 0.037965, 0.031783, 9.808506, -0.007051, 0.000465, 0.007182, 0.212174, 0.234065, 0.234065, 97.444471, 0.000000, 0.000000, 0.000000, 0.000000, 0.000000, 0.000000, 0.037572, 0.029999, 9.807724, 0.185656, 0.221771
2.550000, 0.037011, 0.032867, 9.806601, -0.011480, 0.001381, 0.007029, 0.196843, 0.234128, 0.234128, 94.277316, 0.000000, 0.000000, 0.000000, 0.000000, 0.000000, 0.000000, 0.036375, 0.033589, 9.805330, 0.192025, 0.216240
2.600000, 0.035194, 0.032582, 9.807993, -0.008273, 0.003214, 0.007182, 0.191060, 0.238064, 0.238064, 94.307651, 0.000000, 0.000000, 0.000000, 0.000000, 0.000000, 0.000000, 0.033982, 0.032393, 9.808921, 0.190336, 0.205591
2.650000, 0.037339, 0.033905, 9.808550, -0.013923, 0.000771, 0.005502, 0.171547, 0.236215, 0.236215, 99.182087, 0.000000, 0.000000, 0.000000, 0.000000, 0.000000, 0.000000, 0.038769, 0.034786, 9.808921, 0.198049, 0.218110
2.700000, 0.036761, 0.032997, 9.807336, -0.004455, -0.001062, 0.008404, 0.178164, 0.229380, 0.229380, 92.475222, 0.000000, 0.000000, 0.000000, 0.000000, 0.000000, 0.000000, 0.036375, 0.032393, 9.806527, 0.192773, 0.214760
2.750000, 0.035812, 0.032635, 9.805415, -0.006440, 0.001992, 0.003822, 0.178883, 0.230656, 0.230656, 90.161396, 0.000000, 0.000000, 0.000000, 0.000000, 0.000000, 0.000000, 0.035179, 0.032393, 9.804134, 0.190691, 0.209255
2.800000, 0.035432, 0.035362, 9.809673, -0.005829, 0.003672, 0.004891, 0.182462, 0.236015, 0.236015, 95.605242, 0.000000, 0.000000, 0.000000, 0.000000, 0.000000, 0.000000, 0.035179, 0.037180, 9.812511, 0.206537, 0.206946
2.850000, 0.036716, 0.036453, 9.809222, -0.001248, -0.002131, 0.004891, 0.198396, 0.226183, 0.226183, 95.844566, 0.000000, 0.000000, 0.000000, 0.000000, 0.000000, 0.000000, 0.037572, 0.037180, 9.808921, 0.212918, 0.214457
2.900000, 0.036512, 0.034735, 9.810477, -0.003997, 0.002145, 0.007487, 0.205048, 0.228282, 0.228282, 97.187047, 0.000000, 0.000000, 0.000000, 0.000000, 0.000000, 0.000000, 0.036375, 0.033589, 9.811315, 0.202858, 0.213236
2.950000, 0.035712, 0.034048, 9.809543, -0.008273, 0.003061, 0.006113, 0.199572, 0.232227, 0.232227, 96.682661, 0.000000, 0.000000, 0.000000, 0.000000, 0.000000, 0.000000, 0.035179, 0.033589, 9.808921, 0.198864, 0.208585
3.000000, 0.036110, 0.035927, 9.809888, -0.004150, -0.001673, 0.009320, 0.206271, 0.223489, 0.223489, 93.586054, 0.000000, 0.000000, 0.000000, 0.000000, 0.000000, 0.000000, 0.036375, 0.037180, 9.810118, 0.209833, 0.210902
3.050000, 0.039142, 0.035243, 9.810026, -0.008120, -0.000146, 0.007182, 0.201657, 0.220821, 0.220821, 95.194429, 0.000000, 0.000000, 0.000000, 0.000000, 0.000000, 0.000000, 0.041163, 0.034786, 9.810118, 0.205833, 0.228606
3.100000, 0.040354, 0.034251, 9.808645, -0.003233, -0.001215, 0.003517, 0.209873, 0.216112, 0.216112, 97.869076, 0.000000, 0.000000, 0.000000, 0.000000, 0.000000, 0.000000, 0.041163, 0.033589, 9.807724, 0.200068, 0.235721
3.150000, 0.040121, 0.035290, 9.810965, -0.005219, -0.001215, 0.006266, 0.212648, 0.211708, 0.211708, 96.952957, 0.000000, 0.000000, 0.000000, 0.000000, 0.000000, 0.000000, 0.039966, 0.035983, 9.812511, 0.206091, 0.234304
3.200000, 0.039310, 0.037860, 9.812611, -0.004608, 0.001381, 0.007946, 0.217962, 0.214198, 0.214198, 95.055900, 0.000000, 0.000000, 0.000000, 0.000000, 0.000000, 0.000000, 0.038769, 0.039574, 9.813708, 0.221062, 0.229528
3.250000, 0.041140, 0.035298, 9.812551, -0.007815, 0.001687, 0.007946, 0.213244, 0.218166, 0.218166, 94.253836, 0.000000, 0.000000, 0.000000, 0.000000, 0.000000, 0.000000, 0.042360, 0.033589, 9.812511, 0.206102, 0.240213
3.300000, 0.040435, 0.033555, 9.811091, -0.006746, -0.000909, 0.003975, 0.210918, 0.214708, 0.214708, 90.776318, 0.000000, 0.000000, 0.000000, 0.000000, 0.000000, 0.000000, 0.039966, 0.032393, 9.810118, 0.195953, 0.236136
3.350000, 0.039436, 0.033576, 9.809071, -0.003233, 0.002603, 0.006724, 0.218037, 0.220422, 0.220422, 95.819966, 0.000000, 0.000000, 0.000000, 0.000000, 0.000000, 0.000000, 0.038769, 0.033589, 9.807724, 0.196116, 0.230345
3.400000, 0.039754, 0.038611, 9.807545, -0.006593, 0.006268, 0.007487, 0.217906, 0.235572, 0.235572, 97.105481, 0.000000, 0.000000, 0.000000, 0.000000, 0.000000, 0.000000, 0.039966, 0.041967, 9.806527, 0.225560, 0.232239
3.450000, 0.038445, 0.037034, 9.804780, -0.008731, -0.001215, 0.005960, 0.211451, 0.229177, 0.229177, 94.990634, 0.000000, 0.000000, 0.000000, 0.000000, 0.000000, 0.000000, 0.037572, 0.035983, 9.802937, 0.216412, 0.224656
3.500000, 0.037921, 0.035685, 9.806546, -0.007051, 0.001534, 0.004586, 0.209346, 0.230297, 0.230297, 91.689198, 0.000000, 0.000000, 0.000000, 0.000000, 0.000000, 0.000000, 0.037572, 0.034786, 9.807724, 0.208493, 0.221557
3.550000, 0.037712, 0.033710, 9.805099, -0.001095, 0.002909, 0.006113, 0.222298, 0.234858, 0.234858, 96.906407, 0.000000, 0.000000, 0.000000, 0.000000, 0.000000, 0.000000, 0.037572, 0.032393, 9.804134, 0.196979, 0.220366
3.600000, 0.039782, 0.033638, 9.804520, -0.000484, 0.001992, 0.003822, 0.235790, 0.237523, 0.237523, 98.220976, 0.000000, 0.000000, 0.000000, 0.000000, 0.000000, 0.000000, 0.041163, 0.033589, 9.804134, 0.196569, 0.232478
3.650000, 0.039893, 0.035045, 9.804288, -0.008120, 0.001534, 0.008098, 0.228550, 0.238809, 0.238809, 92.568274, 0.000000, 0.000000, 0.000000, 0.000000, 0.000000, 0.000000, 0.039966, 0.035983, 9.804134, 0.204798, 0.233127
3.700000, 0.039218, 0.033454, 9.803477, -0.006440, -0.001978, 0.006724, 0.225541, 0.230382, 0.230382, 94.313412, 0.000000, 0.000000, 0.000000, 0.000000, 0.000000, 0.000000, 0.038769, 0.032393, 9.802937, 0.195515, 0.229207
3.750000, 0.036795, 0.033535, 9.806025, -0.002622, 0.002298, 0.004433, 0.232822, 0.232844, 0.232844, 94.962815, 0.000000, 0.000000, 0.000000, 0.000000, 0.000000, 0.000000, 0.035179, 0.033589, 9.807724, 0.195940, 0.214985
3.800000, 0.035107, 0.034286, 9.808481, -0.010105, 0.003061, 0.007793, 0.219951, 0.236351, 0.236351, 96.646766, 0.000000, 0.000000, 0.000000, 0.000000, 0.000000, 0.000000, 0.033982, 0.034786, 9.810118, 0.200277, 0.205073
3.850000, 0.034432, 0.033868, 9.808027, -0.005066, 0.000465, 0.006266, 0.221163, 0.232332, 0.232332, 96.576114, 0.000000, 0.000000, 0.000000, 0.000000, 0.000000, 0.000000, 0.033982, 0.033589, 9.807724, 0.197845, 0.201139
3.900000, 0.035598, 0.037291, 9.806409, -0.007967, 0.005047, 0.006418, 0.216030, 0.241181, 0.241181, 94.567648, 0.000000, 0.000000, 0.000000, 0.000000, 0.000000, 0.000000, 0.036375, 0.039574, 9.805330, 0.217879, 0.207986
3.950000, 0.033910, 0.035070, 9.808634, -0.003233, 0.000465, 0.005502, 0.222859, 0.236389, 0.236389, 95.281241, 0.000000, 0.000000, 0.000000, 0.000000, 0.000000, 0.000000, 0.032785, 0.033589, 9.810118, 0.204856, 0.198080
4.000000, 0.033953, 0.035618, 9.807370, -0.003844, -0.002131, 0.006418, 0.227747, 0.224988, 0.224988, 97.523820, 0.000000, 0.000000, 0.000000, 0.000000, 0.000000, 0.000000, 0.033982, 0.035983, 9.806527, 0.208082, 0.198356
4.050000, 0.037561, 0.037273, 9.807582, -0.009342, -0.000146, 0.006571, 0.218366, 0.221202, 0.221202, 95.055900, 0.000000, 0.000000, 0.000000, 0.000000, 0.000000, 0.000000, 0.039966, 0.038377, 9.807724, 0.217747, 0.219427
4.100000, 0.039004, 0.035063, 9.809104, -0.004455, -0.000146, 0.004280, 0.221669, 0.218322, 0.218322, 98.130102, 0.000000, 0.000000, 0.000000, 0.000000, 0.000000, 0.000000, 0.039966, 0.033589, 9.810118, 0.204803, 0.227822
4.150000, 0.038145, 0.034179, 9.808276, -0.004302, 0.000465, 0.005960, 0.224698, 0.216931, 0.216931, 94.096417, 0.000000, 0.000000, 0.000000, 0.000000, 0.000000, 0.000000, 0.037572, 0.033589, 9.807724, 0.199656, 0.222824
4.200000, 0.036365, 0.033107, 9.809381, -0.001553, 0.001840, 0.007640, 0.234245, 0.218524, 0.218524, 97.394009, 0.000000, 0.000000, 0.000000, 0.000000, 0.000000, 0.000000, 0.035179, 0.032393, 9.810118, 0.193374, 0.212404
4.250000, 0.035653, 0.034115, 9.808387, -0.007204, -0.001826, 0.008556, 0.228425, 0.209957, 0.209957, 94.220284, 0.000000, 0.000000, 0.000000, 0.000000, 0.000000, 0.000000, 0.035179, 0.034786, 9.807724, 0.199279, 0.208267
4.300000, 0.036087, 0.036672, 9.810143, -0.002011, 0.001381, 0.003517, 0.237834, 0.210712, 0.210712, 97.377419, 0.000000, 0.000000, 0.000000, 0.000000, 0.000000, 0.000000, 0.036375, 0.038377, 9.811315, 0.214178, 0.210760
4.350000, 0.036978, 0.032668, 9.808692, -0.004302, 0.003978, 0.005960, 0.238655, 0.218684, 0.218684, 98.130102, 0.000000, 0.000000, 0.000000, 0.000000, 0.000000, 0.000000, 0.037572, 0.029999, 9.807724, 0.190823, 0.215998
4.400000, 0.036616, 0.033939, 9.810265, -0.004302, 0.005505, 0.006113, 0.239829, 0.229941, 0.229941, 96.269325, 0.000000, 0.000000, 0.000000, 0.000000, 0.000000, 0.000000, 0.036375, 0.034786, 9.811315, 0.198215, 0.213852
4.450000, 0.037190, 0.033729, 9.813767, -0.004608, 0.003367, 0.004891, 0.239890, 0.234888, 0.234888, 93.814075, 0.000000, 0.000000, 0.000000, 0.000000, 0.000000, 0.000000, 0.037572, 0.033589, 9.816102, 0.196920, 0.217124
4.500000, 0.036701, 0.032927, 9.808705, -0.007967, 0.000160, 0.003822, 0.230573, 0.230709, 0.230709, 97.143820, 0.000000, 0.000000, 0.000000, 0.000000, 0.000000, 0.000000, 0.036375, 0.032393, 9.805330, 0.192337, 0.214382
4.550000, 0.037224, 0.031888, 9.810989, -0.000026, -0.000757, 0.003670, 0.242438, 0.224589, 0.224589, 95.138119, 0.000000, 0.000000, 0.000000, 0.000000, 0.000000, 0.000000, 0.037572, 0.031196, 9.812511, 0.186225, 0.217384
4.600000, 0.034561, 0.033627, 9.813339, -0.003997, 0.001687, 0.005349, 0.243483, 0.224218, 0.224218, 93.012788, 0.000000, 0.000000, 0.000000, 0.000000, 0.000000, 0.000000, 0.032785, 0.034786, 9.814905, 0.196332, 0.201782
4.650000, 0.034931, 0.035041, 9.812842, -0.002928, 0.000618, 0.007640, 0.247765, 0.221139, 0.221139, 93.814075, 0.000000, 0.000000, 0.000000, 0.000000, 0.000000, 0.000000, 0.035179, 0.035983, 9.812511, 0.204595, 0.203957
4.700000, 0.035798, 0.033452, 9.814798, -0.006288, 0.003672, 0.006877, 0.242001, 0.226711, 0.226711, 93.961527, 0.000000, 0.000000, 0.000000, 0.000000, 0.000000, 0.000000, 0.036375, 0.032393, 9.816102, 0.195280, 0.208975
4.750000, 0.034708, 0.035689, 9.811272, -0.008884, 0.001534, 0.003670, 0.230629, 0.225679, 0.225679, 94.935304, 0.000000, 0.000000, 0.000000, 0.000000, 0.000000, 0.000000, 0.033982, 0.037180, 9.808921, 0.208412, 0.202687
4.800000, 0.037145, 0.035147, 9.813452, -0.003233, 0.001840, 0.004433, 0.234783, 0.226525, 0.226525, 95.664963, 0.000000, 0.000000, 0.000000, 0.000000, 0.000000, 0.000000, 0.038769, 0.034786, 9.814905, 0.205205, 0.216867
4.850000, 0.040274, 0.034931, 9.810733, -0.009495, 0.002145, 0.005502, 0.221851, 0.229459, 0.229459, 92.931724, 0.000000, 0.000000, 0.000000, 0.000000, 0.000000, 0.000000, 0.042360, 0.034786, 9.808921, 0.203996, 0.235200
4.900000, 0.037935, 0.033408, 9.807492, -0.007662, 0.002145, 0.003211, 0.214033, 0.231176, 0.231176, 93.625465, 0.000000, 0.000000, 0.000000, 0.000000, 0.000000, 0.000000, 0.036375, 0.032393, 9.805330, 0.195168, 0.221614
4.950000, 0.037717, 0.033517, 9.808349, -0.005219, -0.002436, 0.006113, 0.213267, 0.220495, 0.220495, 95.310824, 0.000000, 0.000000, 0.000000, 0.000000, 0.000000, 0.000000, 0.037572, 0.033589, 9.808921, 0.195787, 0.220324
5.000000, 0.037630, 0.032842, 9.807974, -0.007967, 0.002756, 0.005960, 0.204927, 0.224339, 0.224339, 97.507347, 0.000000, 0.000000, 0.000000, 0.000000, 0.000000, 0.000000, 0.037572, 0.032393, 9.807724, 0.191854, 0.219825
5.050000, 0.037595, 0.034009, 9.809260, -0.006746, 0.001840, 0.005808, 0.200917, 0.225437, 0.225437, 97.604869, 0.000024, -0.000340, -0.000004, -0.000288, 0.004152, 0.000049, 0.037572, 0.034786, 9.810118, 0.198642, 0.219592
5.100000, 0.036145, 0.033039, 9.806184, -0.004913, 0.002756, 0.005349, 0.201640, 0.228237, 0.228237, 96.515301, 0.000059, -0.000917, -0.000025, -0.000525, 0.008319, 0.000270, 0.035179, 0.032393, 9.804134, 0.193039, 0.211189
5.150000, 0.037002, 0.031215, 9.807108, -0.006593, -0.000146, 0.006418, 0.197034, 0.223459, 0.223459, 95.370995, 0.000104, -0.001726, -0.000054, -0.000708, 0.012492, 0.000440, 0.037572, 0.029999, 9.807724, 0.182365, 0.216171
5.200000, 0.038780, 0.031203, 9.808196, -0.001095, 0.003367, 0.005044, 0.207297, 0.229102, 0.229102, 95.884360, 0.000151, -0.002778, -0.000088, -0.000808, 0.016819, 0.000550, 0.039966, 0.031196, 9.808921, 0.182277, 0.226537
5.250000, 0.035901, 0.036226, 9.809349, -0.006288, 0.004894, 0.004433, 0.205145, 0.237108, 0.237108, 97.444471, 0.000229, -0.004062, -0.000122, -0.001208, 0.021044, 0.000596, 0.033982, 0.039574, 9.810118, 0.211589, 0.209694
5.300000, 0.035468, 0.035362, 9.806938, -0.007967, -0.001215, 0.003822, 0.198346, 0.228057, 0.228057, 95.906141, 0.000331, -0.005572, -0.000170, -0.001621, 0.025157, 0.000774, 0.035179, 0.034786, 9.805330, 0.206595, 0.207213
5.350000, 0.034576, 0.035735, 9.807410, -0.006440, 0.002298, 0.008556, 0.196288, 0.228545, 0.228545, 91.382204, 0.000457, -0.007303, -0.000226, -0.002059, 0.029218, 0.000926, 0.033982, 0.035983, 9.807724, 0.208763, 0.201995
5.400000, 0.035656, 0.032293, 9.809034, -0.004760, -0.002284, 0.006266, 0.197371, 0.217241, 0.217241, 94.277316, 0.000590, -0.009261, -0.000282, -0.002286, 0.033255, 0.000988, 0.036375, 0.029999, 9.810118, 0.188627, 0.208268
5.450000, 0.034651, 0.032353, 9.812557, -0.000484, 0.003519, 0.007182, 0.209704, 0.221697, 0.221697, 94.542725, 0.000726, -0.011437, -0.000326, -0.002393, 0.037281, 0.000855, 0.033982, 0.032393, 9.814905, 0.188907, 0.202329
5.500000, 0.036404, 0.032377, 9.812530, -0.011174, 0.001381, 0.007182, 0.192728, 0.220859, 0.220859, 94.352703, 0.000881, -0.013856, -0.000362, -0.002665, 0.041402, 0.000723, 0.037572, 0.032393, 9.812511, 0.189047, 0.212562
5.550000, 0.037823, 0.033822, 9.810364, -0.011480, -0.001520, 0.008862, 0.176831, 0.212990, 0.212990, 95.310824, 0.001071, -0.016497, -0.000402, -0.003167, 0.045503, 0.000711, 0.038769, 0.034786, 9.808921, 0.197532, 0.220897
5.600000, 0.036236, 0.033683, 9.810934, -0.004608, -0.000604, 0.002601, 0.180337, 0.207468, 0.207468, 96.132222, 0.001285, -0.019359, -0.000437, -0.003620, 0.049472, 0.000667, 0.035179, 0.033589, 9.811315, 0.196704, 0.211618
5.650000, 0.034884, 0.033627, 9.808290, -0.007662, 0.004130, 0.008862, 0.175511, 0.214335, 0.214335, 93.605652, 0.001527, -0.022439, -0.000483, -0.004112, 0.053425, 0.000770, 0.033982, 0.033589, 9.806527, 0.196431, 0.203773
5.700000, 0.035061, 0.031450, 9.810823, -0.009495, -0.001520, 0.004586, 0.165296, 0.205753, 0.205753, 91.346128, 0.001793, -0.025726, -0.000523, -0.004561, 0.057303, 0.000732, 0.035179, 0.029999, 9.812511, 0.183668, 0.204754
5.750000, 0.037286, 0.032734, 9.810400, -0.005982, 0.003061, 0.005044, 0.165767, 0.210924, 0.210924, 95.251984, 0.002089, -0.029239, -0.000562, -0.005082, 0.061346, 0.000718, 0.038769, 0.033589, 9.810118, 0.191173, 0.217758
5.800000, 0.037458, 0.034683, 9.810231, -0.004455, 0.000618, 0.004128, 0.171174, 0.209326, 0.209326, 96.449535, 0.002419, -0.032972, -0.000601, -0.005662, 0.065376, 0.000713, 0.037572, 0.035983, 9.810118, 0.202563, 0.218766
5.850000, 0.038245, 0.032591, 9.808727, -0.001706, 0.001381, 0.005349, 0.182647, 0.210244, 0.210244, 97.347170, 0.002764, -0.036949, -0.000648, -0.006031, 0.069486, 0.000793, 0.038769, 0.031196, 9.807724, 0.190371, 0.223396
5.900000, 0.037123, 0.033908, 9.808125, -0.009647, -0.000451, 0.006113, 0.172808, 0.205786, 0.205786, 95.634945, 0.003143, -0.041130, -0.000701, -0.006562, 0.073467, 0.000904, 0.036375, 0.034786, 9.807724, 0.198077, 0.216858
5.950000, 0.039547, 0.032281, 9.809321, -0.005371, -0.001673, 0.007182, 0.174401, 0.199508, 0.199508, 99.003193, 0.003544, -0.045544, -0.000755, -0.007009, 0.077534, 0.000950, 0.041163, 0.031196, 9.810118, 0.188548, 0.230989
6.000000, 0.038362, 0.033784, 9.809799, -0.007815, 0.000312, 0.007487, 0.170093, 0.198536, 0.198536, 97.417837, 0.003981, -0.050177, -0.000809, -0.007587, 0.081515, 0.000968, 0.037572, 0.034786, 9.810118, 0.197319, 0.224058
6.050000, 0.039324, 0.035103, 9.808554, -0.008578, 0.003214, 0.007335, 0.164737, 0.205823, 0.205823, 96.275851, 0.004463, -0.055049, -0.000870, -0.008309, 0.085613, 0.001057, 0.039966, 0.035983, 9.807724, 0.205051, 0.229707
6.100000, 0.039709, 0.035631, 9.805184, -0.009189, 0.001076, 0.005044, 0.158514, 0.207141, 0.207141, 96.200019, 0.004996, -0.060179, -0.000953, -0.009131, 0.089758, 0.001334, 0.039966, 0.035983, 9.802937, 0.208206, 0.232035
6.150000, 0.039145, 0.034406, 9.804554, -0.003844, 0.001687, 0.004891, 0.166535, 0.209807, 0.209807, 95.463843, 0.005560, -0.065514, -0.001053, -0.009808, 0.093888, 0.001645, 0.038769, 0.033589, 9.804134, 0.201060, 0.228754
6.200000, 0.038201, 0.031762, 9.805738, -0.010716, 0.001381, 0.009473, 0.154684, 0.211106, 0.211106, 90.150382, 0.006156, -0.071060, -0.001164, -0.010429, 0.097974, 0.001890, 0.037572, 0.029999, 9.806527, 0.185585, 0.223212
6.250000, 0.038542, 0.031422, 9.804057, -0.007967, 0.002145, 0.006113, 0.150948, 0.214519, 0.214519, 92.062392, 0.006785, -0.076833, -0.001297, -0.011054, 0.102108, 0.002229, 0.038769, 0.031196, 9.802937, 0.183632, 0.225241
6.300000, 0.039396, 0.034877, 9.807694, -0.006746, 0.001229, 0.007487, 0.152324, 0.215645, 0.215645, 90.744059, 0.007464, -0.082847, -0.001432, -0.011840, 0.106297, 0.002366, 0.039966, 0.037180, 9.810118, 0.203745, 0.230148
6.350000, 0.038302, 0.034822, 9.807712, -0.002011, -0.000298, 0.005349, 0.166273, 0.212203, 0.212203, 95.950189, 0.008173, -0.089077, -0.001575, -0.012478, 0.110397, 0.002501, 0.037572, 0.034786, 9.807724, 0.203427, 0.223754
6.400000, 0.037146, 0.031928, 9.808437, -0.004760, -0.002436, 0.005808, 0.170739, 0.202878, 0.202878, 94.162435, 0.008901, -0.095541, -0.001721, -0.012900, 0.114371, 0.002595, 0.036375, 0.029999, 9.808921, 0.186507, 0.216986
6.450000, 0.036684, 0.032925, 9.807291, 0.001501, -0.002895, 0.006724, 0.191953, 0.192875, 0.192875, 95.018765, 0.009639, -0.102202, -0.001878, -0.013166, 0.118225, 0.002752, 0.036375, 0.033589, 9.806527, 0.192351, 0.214310
6.500000, 0.035781, 0.034760, 9.807551, -0.007051, 0.002450, 0.005808, 0.189713, 0.197457, 0.197457, 94.950272, 0.010403, -0.109094, -0.002043, -0.013554, 0.122075, 0.002895, 0.035179, 0.035983, 9.807724, 0.203065, 0.209029
6.550000, 0.035419, 0.033340, 9.808373, -0.003691, 0.000007, 0.005960, 0.195965, 0.195094, 0.195094, 92.039809, 0.011176, -0.116194, -0.002212, -0.013794, 0.125891, 0.002992, 0.035179, 0.032393, 9.808921, 0.194751, 0.206901
6.600000, 0.035275, 0.032053, 9.809420, -0.007051, 0.000923, 0.007793, 0.192278, 0.195305, 0.195305, 94.301056, 0.011958, -0.123498, -0.002381, -0.013991, 0.129700, 0.003031, 0.035179, 0.031196, 9.810118, 0.187218, 0.206035
6.650000, 0.034499, 0.032975, 9.809120, -0.005066, 0.000618, 0.008251, 0.194517, 0.194385, 0.194385, 92.963621, 0.012752, -0.131002, -0.002554, -0.014209, 0.133452, 0.003087, 0.033982, 0.033589, 9.808921, 0.192607, 0.201510
6.700000, 0.033471, 0.034780, 9.812591, -0.005982, -0.000146, 0.007946, 0.194935, 0.191076, 0.191076, 93.814075, 0.013564, -0.138701, -0.002714, -0.014512, 0.137108, 0.002949, 0.032785, 0.035983, 9.814905, 0.203078, 0.195433
6.750000, 0.033777, 0.037656, 9.811107, -0.004760, -0.001367, 0.007946, 0.199839, 0.184924, 0.184924, 93.793900, 0.014406, -0.146635, -0.002873, -0.014923, 0.140732, 0.002892, 0.033982, 0.039574, 9.810118, 0.219905, 0.197254
6.800000, 0.033900, 0.033780, 9.812668, -0.008884, 0.000618, 0.008098, 0.191813, 0.184580, 0.184580, 96.830186, 0.015257, -0.154738, -0.003022, -0.015200, 0.144354, 0.002750, 0.033982, 0.031196, 9.813708, 0.197238, 0.197939
6.850000, 0.035385, 0.035820, 9.814728, -0.006898, -0.001215, 0.005044, 0.190550, 0.180085, 0.180085, 95.568342, 0.016135, -0.163057, -0.003153, -0.015608, 0.148013, 0.002493, 0.036375, 0.037180, 9.816102, 0.209105, 0.206568
6.900000, 0.035979, 0.033045, 9.816270, -0.003691, 0.002603, 0.005502, 0.196727, 0.186381, 0.186381, 94.097284, 0.017016, -0.171573, -0.003263, -0.015809, 0.151771, 0.002152, 0.036375, 0.031196, 9.817299, 0.192878, 0.210003
6.950000, 0.035499, 0.033372, 9.814733, -0.009342, 0.003519, 0.005808, 0.187596, 0.194497, 0.194497, 94.873896, 0.017919, -0.180306, -0.003361, -0.016120, 0.155576, 0.001896, 0.035179, 0.033589, 9.813708, 0.194814, 0.207231
7.000000, 0.033871, 0.036375, 9.810528, -0.002775, 0.000160, 0.006877, 0.197891, 0.192435, 0.192435, 92.753877, 0.018843, -0.189237, -0.003464, -0.016488, 0.159264, 0.001872, 0.032785, 0.038377, 9.807724, 0.212435, 0.197810
7.050000, 0.038246, 0.035422, 9.808846, -0.003233, -0.001673, 0.007182, 0.205833, 0.187592, 0.187592, 93.918249, 0.019781, -0.198418, -0.003574, -0.016738, 0.163168, 0.001943, 0.041163, 0.034786, 9.807724, 0.206904, 0.223401
7.100000, 0.037124, 0.035040, 9.810327, -0.005982, -0.000909, 0.005655, 0.205729, 0.184747, 0.184747, 94.939216, 0.020729, -0.207799, -0.003681, -0.016961, 0.166981, 0.001930, 0.036375, 0.034786, 9.811315, 0.204646, 0.216813
7.150000, 0.035957, 0.036324, 9.811638, -0.004150, -0.001826, 0.005655, 0.211046, 0.179267, 0.179267, 94.828237, 0.021690, -0.217371, -0.003781, -0.017198, 0.170672, 0.001845, 0.035179, 0.037180, 9.812511, 0.212115, 0.209969
7.200000, 0.035490, 0.033965, 9.810726, -0.007204, -0.000298, 0.004739, 0.206846, 0.178131, 0.178131, 94.824272, 0.022655, -0.227133, -0.003880, -0.017343, 0.174327, 0.001810, 0.035179, 0.032393, 9.810118, 0.198359, 0.207263
7.250000, 0.036021, 0.035176, 9.811079, -0.006898, -0.001978, 0.004739, 0.204271, 0.172941, 0.172941, 87.535627, 0.023634, -0.237094, -0.003976, -0.017559, 0.177957, 0.001755, 0.036375, 0.035983, 9.811315, 0.205422, 0.210358
7.300000, 0.035516, 0.034224, 9.811220, -0.003691, 0.002909, 0.006418, 0.209979, 0.180981, 0.180981, 93.896962, 0.024618, -0.247294, -0.004068, -0.017662, 0.181654, 0.001693, 0.035179, 0.033589, 9.811315, 0.199860, 0.207403
7.350000, 0.037468, 0.035279, 9.809841, -0.005371, -0.001215, 0.003822, 0.211240, 0.178419, 0.178419, 89.529086, 0.025609, -0.257676, -0.004163, -0.017798, 0.185421, 0.001708, 0.038769, 0.035983, 9.808921, 0.206052, 0.218833
7.400000, 0.036812, 0.036420, 9.810007, -0.002928, 0.002450, 0.006266, 0.219366, 0.185596, 0.185596, 95.477369, 0.026606, -0.268278, -0.004258, -0.017919, 0.189225, 0.001713, 0.036375, 0.037180, 9.810118, 0.212709, 0.215002
7.450000, 0.037268, 0.036158, 9.809355, -0.009495, 0.001840, 0.006724, 0.209345, 0.190903, 0.190903, 96.506943, 0.027619, -0.279112, -0.004357, -0.018131, 0.193105, 0.001755, 0.037572, 0.035983, 9.808921, 0.211192, 0.217679
7.500000, 0.036733, 0.035335, 9.809813, -0.006593, -0.000298, 0.005960, 0.207410, 0.189989, 0.189989, 94.618322, 0.028644, -0.290188, -0.004456, -0.018318, 0.196957, 0.001772, 0.036375, 0.034786, 9.810118, 0.206377, 0.214540
7.550000, 0.038673, 0.034288, 9.811432, -0.007051, 0.000007, 0.006266, 0.203943, 0.190866, 0.190866, 96.515301, 0.029677, -0.301458, -0.004549, -0.018495, 0.200917, 0.001699, 0.039966, 0.033589, 9.812511, 0.200227, 0.225834
7.600000, 0.035858, 0.033869, 9.811361, -0.008578, 0.001840, 0.007487, 0.196493, 0.195412, 0.195412, 94.676053, 0.030722, -0.312933, -0.004637, -0.018718, 0.204759, 0.001630, 0.033982, 0.033589, 9.811315, 0.197782, 0.209400
7.650000, 0.034014, 0.034419, 9.812051, -0.008273, 0.000618, 0.006724, 0.190650, 0.195616, 0.195616, 96.340192, 0.031791, -0.324650, -0.004719, -0.019031, 0.208508, 0.001522, 0.032785, 0.034786, 9.812511, 0.200983, 0.198618
7.700000, 0.036149, 0.034639, 9.810173, -0.002470, -0.000451, 0.005502, 0.200757, 0.193911, 0.193911, 95.047215, 0.032866, -0.336531, -0.004803, -0.019271, 0.212346, 0.001519, 0.037572, 0.034786, 9.808921, 0.202308, 0.211125
7.750000, 0.038439, 0.035446, 9.809422, -0.007357, 0.004741, 0.003364, 0.197511, 0.207148, 0.207148, 97.954214, 0.033964, -0.348651, -0.004891, -0.019615, 0.216432, 0.001559, 0.039966, 0.035983, 9.808921, 0.207032, 0.224517
7.800000, 0.037919, 0.035768, 9.809839, -0.005066, 0.001381, 0.004891, 0.200748, 0.210314, 0.210314, 93.974889, 0.035079, -0.360987, -0.004978, -0.019950, 0.220517, 0.001575, 0.037572, 0.035983, 9.810118, 0.208906, 0.221469
7.850000, 0.038429, 0.035179, 9.808570, -0.002928, -0.000604, 0.006571, 0.209180, 0.208236, 0.208236, 93.012788, 0.036205, -0.373579, -0.005073, -0.020171, 0.224626, 0.001663, 0.038769, 0.034786, 9.807724, 0.205492, 0.224477
7.900000, 0.036479, 0.035661, 9.810935, -0.010258, 0.000465, 0.005502, 0.197745, 0.208342, 0.208342, 91.735705, 0.037352, -0.386362, -0.005162, -0.020510, 0.228612, 0.001618, 0.035179, 0.035983, 9.812511, 0.208260, 0.213034
7.950000, 0.035699, 0.035136, 9.807572, -0.009953, 0.003214, 0.006418, 0.187780, 0.215406, 0.215406, 96.372858, 0.038525, -0.399390, -0.005263, -0.020921, 0.232624, 0.001761, 0.035179, 0.034786, 9.805330, 0.205264, 0.208550
8.000000, 0.036823, 0.035644, 9.807663, -0.010258, 0.001687, 0.006113, 0.178019, 0.218364, 0.218364, 96.718944, 0.039730, -0.412629, -0.005372, -0.021466, 0.236713, 0.001899, 0.037572, 0.035983, 9.807724, 0.208230, 0.215115
8.050000, 0.036554, 0.032975, 9.812008, -0.002928, 0.003672, 0.006266, 0.187339, 0.226232, 0.226232, 96.228866, 0.040949, -0.426121, -0.005469, -0.021788, 0.240882, 0.001796, 0.036375, 0.031196, 9.814905, 0.192552, 0.213452
8.100000, 0.039319, 0.033344, 9.814464, -0.003691, -0.001062, 0.007793, 0.194111, 0.222125, 0.222125, 95.695302, 0.042182, -0.439842, -0.005549, -0.022081, 0.245165, 0.001558, 0.041163, 0.033589, 9.816102, 0.194655, 0.229540
8.150000, 0.035399, 0.036364, 9.811856, -0.011938, 0.000160, 0.007487, 0.179835, 0.219882, 0.219882, 91.175995, 0.043456, -0.453788, -0.005628, -0.022654, 0.249191, 0.001463, 0.032785, 0.038377, 9.810118, 0.212340, 0.206707
8.200000, 0.037421, 0.034699, 9.813686, -0.005371, 0.001687, 0.005655, 0.183400, 0.222694, 0.222694, 91.653749, 0.044752, -0.467989, -0.005693, -0.023099, 0.253372, 0.001267, 0.038769, 0.033589, 9.814905, 0.202583, 0.218475
8.250000, 0.036076, 0.035469, 9.814417, -0.003844, 0.000160, 0.006724, 0.191137, 0.220649, 0.220649, 92.208255, 0.046066, -0.482382, -0.005743, -0.023494, 0.257453, 0.001030, 0.035179, 0.035983, 9.814905, 0.207066, 0.210604
8.300000, 0.034819, 0.032905, 9.811838, -0.007509, 0.000007, 0.005197, 0.187514, 0.217780, 0.217780, 97.366769, 0.047394, -0.497002, -0.005793, -0.023782, 0.261445, 0.000936, 0.033982, 0.031196, 9.810118, 0.192147, 0.203324
8.350000, 0.037189, 0.034752, 9.812242, -0.007815, -0.000604, 0.005808, 0.184168, 0.214494, 0.214494, 93.814075, 0.048747, -0.511829, -0.005835, -0.024210, 0.265523, 0.000820, 0.038769, 0.035983, 9.812511, 0.202922, 0.217153
8.400000, 0.039573, 0.032618, 9.811685, -0.005829, 0.002909, 0.003211, 0.185460, 0.221813, 0.221813, 92.327815, 0.050117, -0.526929, -0.005873, -0.024513, 0.269819, 0.000736, 0.041163, 0.031196, 9.811315, 0.190474, 0.231088
8.450000, 0.039809, 0.030329, 9.811463, -0.007815, 0.001381, 0.005197, 0.180411, 0.224666, 0.224666, 91.098688, 0.051493, -0.542244, -0.005908, -0.024726, 0.274152, 0.000665, 0.039966, 0.028802, 9.811315, 0.177107, 0.232469
8.500000, 0.037749, 0.032285, 9.811374, -0.011480, 0.000160, 0.008862, 0.166864, 0.223194, 0.223194, 94.144624, 0.052901, -0.557803, -0.005940, -0.025164, 0.278349, 0.000599, 0.036375, 0.033589, 9.811315, 0.188534, 0.220441
8.550000, 0.036207, 0.032350, 9.811338, -0.005677, 0.001076, 0.006724, 0.169803, 0.223581, 0.223581, 93.029541, 0.054338, -0.573662, -0.005968, -0.025569, 0.282485, 0.000533, 0.035179, 0.032393, 9.811315, 0.188912, 0.211436
8.600000, 0.035590, 0.033812, 9.810606, -0.004455, 0.002450, 0.006266, 0.176454, 0.227281, 0.227281, 94.527171, 0.055793, -0.589699, -0.005995, -0.025990, 0.286608, 0.000508, 0.035179, 0.034786, 9.810118, 0.197464, 0.207849
8.650000, 0.036779, 0.033678, 9.810313, -0.009800, 0.000618, 0.006724, 0.168442, 0.226308, 0.226308, 92.097218, 0.057275, -0.605935, -0.006023, -0.026476, 0.290775, 0.000500, 0.037572, 0.033589, 9.810118, 0.196691, 0.214802
8.700000, 0.033665, 0.033625, 9.812350, -0.008731, -0.000451, 0.004891, 0.163917, 0.221182, 0.221182, 93.665750, 0.058788, -0.622420, -0.006040, -0.026987, 0.294729, 0.000378, 0.031588, 0.033589, 9.813708, 0.196339, 0.196571
8.750000, 0.036009, 0.035040, 9.813165, -0.002164, 0.000007, 0.006877, 0.177848, 0.218600, 0.218600, 98.175288, 0.060327, -0.639129, -0.006047, -0.027461, 0.298789, 0.000210, 0.037572, 0.035983, 9.813708, 0.204584, 0.210244
8.800000, 0.036229, 0.029861, 9.812055, -0.006746, 0.002298, 0.005960, 0.176417, 0.222358, 0.222358, 90.172059, 0.061865, -0.656030, -0.006050, -0.027657, 0.302903, 0.000106, 0.036375, 0.026409, 9.811315, 0.174367, 0.211551
8.850000, 0.037753, 0.033534, 9.808738, -0.004302, 0.000160, 0.005655, 0.183169, 0.220805, 0.220805, 92.315280, 0.063428, -0.673198, -0.006063, -0.027988, 0.307087, 0.000185, 0.038769, 0.035983, 9.806527, 0.195881, 0.220525
8.900000, 0.037645, 0.032849, 9.808848, -0.010716, -0.001062, 0.007487, 0.172151, 0.216081, 0.216081, 92.315280, 0.065011, -0.690550, -0.006079, -0.028374, 0.311207, 0.000257, 0.037572, 0.032393, 9.808921, 0.191878, 0.219889
8.950000, 0.039037, 0.035448, 9.809610, -0.006898, 0.003367, 0.005655, 0.173264, 0.224067, 0.224067, 89.857118, 0.066627, -0.708167, -0.006096, -0.028884, 0.315482, 0.000288, 0.039966, 0.037180, 9.810118, 0.207039, 0.228006
9.000000, 0.038876, 0.033615, 9.812069, -0.009342, 0.001687, 0.006418, 0.167112, 0.226941, 0.226941, 93.292839, 0.068267, -0.726016, -0.006103, -0.029343, 0.319777, 0.000183, 0.038769, 0.032393, 9.813708, 0.196284, 0.227009
9.050000, 0.037376, 0.034318, 9.812334, -0.007967, 0.001534, 0.005502, 0.165452, 0.228542, 0.228542, 93.205216, 0.069939, -0.744130, -0.006103, -0.029850, 0.324009, 0.000063, 0.036375, 0.034786, 9.812511, 0.200384, 0.218241
9.100000, 0.035339, 0.035317, 9.811722, -0.003844, 0.002145, 0.005197, 0.175385, 0.230727, 0.230727, 93.939769, 0.071635, -0.762466, -0.006099, -0.030314, 0.328150, -0.000024, 0.033982, 0.035983, 9.811315, 0.206232, 0.206363
9.150000, 0.033807, 0.032844, 9.812914, -0.005982, -0.001673, 0.006113, 0.177919, 0.221889, 0.221889, 95.969023, 0.073341, -0.780997, -0.006085, -0.030616, 0.332124, -0.000177, 0.032785, 0.031196, 9.813708, 0.191770, 0.197390
9.200000, 0.036784, 0.033291, 9.809800, -0.009342, 0.002603, 0.004128, 0.171596, 0.226276, 0.226276, 94.005770, 0.075073, -0.799765, -0.006077, -0.031017, 0.336299, -0.000157, 0.038769, 0.033589, 9.807724, 0.194442, 0.214842
9.250000, 0.037257, 0.032034, 9.810709, -0.003539, 0.002756, 0.006571, 0.180647, 0.230913, 0.230913, 96.374460, 0.076814, -0.818772, -0.006066, -0.031276, 0.340551, -0.000187, 0.037572, 0.031196, 9.811315, 0.187081, 0.217584
9.300000, 0.037446, 0.034403, 9.807482, -0.013312, 0.003672, 0.007029, 0.164166, 0.237682, 0.237682, 96.304560, 0.078601, -0.838074, -0.006068, -0.031842, 0.344874, -0.000036, 0.037572, 0.035983, 9.805330, 0.200984, 0.218760
9.350000, 0.037522, 0.035351, 9.807627, -0.006746, 0.002450, 0.004891, 0.166843, 0.240686, 0.240686, 89.215175, 0.080420, -0.857611, -0.006078, -0.032426, 0.349228, 0.000106, 0.037572, 0.035983, 9.807724, 0.206518, 0.219199
9.400000, 0.036834, 0.032858, 9.806967, -0.006135, -0.001215, 0.005808, 0.169969, 0.233388, 0.233388, 96.506943, 0.082261, -0.877420, -0.006099, -0.032843, 0.353490, 0.000284, 0.036375, 0.031196, 9.806527, 0.191966, 0.215195
9.450000, 0.037995, 0.031861, 9.805985, -0.005982, 0.002756, 0.008556, 0.172897, 0.237616, 0.237616, 97.258751, 0.084117, -0.897439, -0.006134, -0.033196, 0.357851, 0.000518, 0.038769, 0.031196, 9.805330, 0.186158, 0.222001
9.500000, 0.039178, 0.032898, 9.807029, -0.007815, -0.001062, 0.007793, 0.171237, 0.231876, 0.231876, 94.725706, 0.085995, -0.917658, -0.006177, -0.033631, 0.362210, 0.000693, 0.039966, 0.033589, 9.807724, 0.192198, 0.228885
9.550000, 0.036060, 0.031877, 9.807446, -0.001095, 0.003214, 0.005044, 0.187131, 0.236532, 0.236532, 94.567648, 0.087881, -0.938125, -0.006229, -0.033857, 0.366455, 0.000845, 0.033982, 0.031196, 9.807724, 0.186224, 0.210664
9.600000, 0.039840, 0.032904, 9.808331, -0.002928, 0.005047, 0.004433, 0.197424, 0.247270, 0.247270, 96.340192, 0.089777, -0.958832, -0.006284, -0.034070, 0.371008, 0.000949, 0.042360, 0.033589, 9.808921, 0.192210, 0.232723
9.650000, 0.037043, 0.032597, 9.808685, -0.002470, -0.000146, 0.002448, 0.208015, 0.242181, 0.242181, 92.340487, 0.091673, -0.979759, -0.006344, -0.034152, 0.375362, 0.001033, 0.035179, 0.032393, 9.808921, 0.190410, 0.216379
9.700000, 0.038797, 0.035347, 9.811699, 0.000279, 0.002450, 0.005960, 0.226247, 0.245038, 0.245038, 96.439205, 0.093572, -1.000938, -0.006394, -0.034228, 0.379842, 0.000949, 0.039966, 0.037180, 9.813708, 0.206407, 0.226553
9.750000, 0.036626, 0.032856, 9.809314, -0.009953, 0.000771, 0.009625, 0.214854, 0.242234, 0.242234, 93.625465, 0.095475, -1.022385, -0.006451, -0.034268, 0.384182, 0.000998, 0.035179, 0.031196, 9.807724, 0.191910, 0.213928
9.800000, 0.036476, 0.035450, 9.811232, -0.009953, 0.003061, 0.007640, 0.205371, 0.245562, 0.245562, 95.726847, 0.097399, -1.044049, -0.006501, -0.034550, 0.388527, 0.000940, 0.036375, 0.037180, 9.812511, 0.207022, 0.213009
9.850000, 0.039288, 0.035770, 9.812000, -0.008731, 0.003519, 0.007335, 0.199977, 0.250986, 0.250986, 96.755622, 0.099347, -1.065980, -0.006545, -0.034925, 0.393076, 0.000840, 0.041163, 0.035983, 9.812511, 0.208871, 0.229413
9.900000, 0.038977, 0.036616, 9.810871, -0.002317, 0.001992, 0.004280, 0.212385, 0.251761, 0.251761, 98.130102, 0.101309, -1.088140, -0.006588, -0.035247, 0.397614, 0.000803, 0.038769, 0.037180, 9.810118, 0.213836, 0.227622
9.950000, 0.039570, 0.031928, 9.812573, -0.003844, 0.000923, 0.005808, 0.217780, 0.249829, 0.249829, 96.132222, 0.103265, -1.110569, -0.006622, -0.035273, 0.402190, 0.000672, 0.039966, 0.028802, 9.813708, 0.186424, 0.231049
10.000000, 0.040526, 0.032207, 9.811818, -0.007051, 0.000771, 0.006266, 0.214302, 0.248000, 0.248000, 93.834465, 0.105232, -1.133301, -0.006652, -0.035352, 0.406808, 0.000583, 0.041163, 0.032393, 9.811315, 0.188067, 0.236646
10.050000, 0.041626, 0.035909, 9.812234, -0.003081, 0.001687, 0.006113, 0.223146, 0.249182, 0.249182, 96.132222, 0.107213, -1.156281, -0.006675, -0.035565, 0.411486, 0.000470, 0.042360, 0.038377, 9.812511, 0.209676, 0.243060
10.100000, 0.037758, 0.037390, 9.809528, -0.007509, -0.001520, 0.006418, 0.220200, 0.240076, 0.240076, 94.854567, 0.109212, -1.179482, -0.006704, -0.035870, 0.415852, 0.000506, 0.035179, 0.038377, 9.807724, 0.218383, 0.220533
10.150000, 0.037646, 0.036546, 9.804855, -0.005677, -0.000451, 0.005655, 0.221966, 0.234387, 0.234387, 94.725706, 0.111221, -1.202895, -0.006757, -0.036110, 0.420157, 0.000801, 0.037572, 0.035983, 9.801740, 0.213556, 0.219989
10.200000, 0.039038, 0.034772, 9.805140, -0.010716, 0.003978, 0.009931, 0.209443, 0.241427, 0.241427, 99.071498, 0.113249, -1.226589, -0.006824, -0.036398, 0.424609, 0.001081, 0.039966, 0.033589, 9.805330, 0.203185, 0.228114
10.250000, 0.042467, 0.036935, 9.805972, -0.006135, -0.000298, 0.006113, 0.210922, 0.238060, 0.238060, 93.310942, 0.115302, -1.250519, -0.006904, -0.036805, 0.429205, 0.001315, 0.044753, 0.038377, 9.806527, 0.215805, 0.248130
10.300000, 0.042403, 0.035646, 9.803433, -0.003997, 0.002603, 0.007029, 0.217416, 0.242642, 0.242642, 90.159598, 0.117365, -1.274715, -0.007008, -0.037066, 0.433854, 0.001691, 0.042360, 0.034786, 9.801740, 0.208327, 0.247817
10.350000, 0.041659, 0.035130, 9.805290, -0.005219, 0.001534, 0.005808, 0.219932, 0.243736, 0.243736, 94.618322, 0.119445, -1.299253, -0.007125, -0.037265, 0.438493, 0.001964, 0.041163, 0.034786, 9.806527, 0.205274, 0.243424
10.400000, 0.039207, 0.034206, 9.807468, -0.008578, 0.002756, 0.009625, 0.212906, 0.246914, 0.246914, 94.750055, 0.121531, -1.323979, -0.007247, -0.037470, 0.443014, 0.002116, 0.037572, 0.033589, 9.808921, 0.199829, 0.229046
10.450000, 0.037508, 0.033836, 9.807622, -0.007509, -0.001978, 0.006266, 0.209038, 0.236512, 0.236512, 95.568342, 0.123625, -1.348891, -0.007376, -0.037678, 0.447333, 0.002258, 0.036375, 0.033589, 9.807724, 0.197666, 0.219118
10.500000, 0.038265, 0.033688, 9.808401, -0.004455, 0.001534, 0.003364, 0.213458, 0.236477, 0.236477, 96.269325, 0.125728, -1.374058, -0.007509, -0.037846, 0.451699, 0.002356, 0.038769, 0.033589, 9.808921, 0.196786, 0.223521
10.550000, 0.038567, 0.035065, 9.809431, -0.008273, 0.001229, 0.008709, 0.207977, 0.235726, 0.235726, 98.408912, 0.127856, -1.399500, -0.007643, -0.038158, 0.456070, 0.002398, 0.038769, 0.035983, 9.810118, 0.204809, 0.225265
10.600000, 0.038688, 0.035616, 9.810561, 0.002112, -0.001215, 0.009778, 0.230665, 0.228575, 0.228575, 96.304560, 0.129982, -1.425146, -0.007775, -0.038291, 0.460388, 0.002376, 0.038769, 0.035983, 9.811315, 0.208002, 0.225946
10.650000, 0.037301, 0.035836, 9.812449, -0.005982, 0.000312, 0.004128, 0.230230, 0.225390, 0.225390, 96.033253, 0.132122, -1.451074, -0.007896, -0.038440, 0.464607, 0.002249, 0.036375, 0.035983, 9.813708, 0.209248, 0.217799
10.700000, 0.040336, 0.031616, 9.813923, -0.005677, 0.001992, 0.006571, 0.228737, 0.228193, 0.228193, 94.802190, 0.134254, -1.477267, -0.008004, -0.038387, 0.469041, 0.002041, 0.042360, 0.028802, 9.814905, 0.184577, 0.235488
10.750000, 0.038678, 0.034236, 9.810922, -0.000026, 0.004894, 0.006113, 0.243354, 0.237785, 0.237785, 93.043240, 0.136382, -1.503684, -0.008114, -0.038335, 0.473469, 0.002001, 0.037572, 0.035983, 9.808921, 0.199937, 0.225876
10.800000, 0.038014, 0.033848, 9.814748, -0.009189, 0.001076, 0.006266, 0.232288, 0.236209, 0.236209, 95.248661, 0.138512, -1.530339, -0.008204, -0.038360, 0.477839, 0.001747, 0.037572, 0.033589, 9.817299, 0.197594, 0.221916
10.850000, 0.039185, 0.038720, 9.813406, 0.000279, 0.004588, 0.005197, 0.249172, 0.244534, 0.244534, 95.378406, 0.140653, -1.557229, -0.008286, -0.038507, 0.482341, 0.001568, 0.039966, 0.041967, 9.812511, 0.226062, 0.228782
10.900000, 0.037499, 0.036360, 9.809279, -0.007051, 0.003519, 0.006724, 0.244276, 0.248631, 0.248631, 99.973661, 0.142799, -1.584400, -0.008377, -0.038584, 0.486799, 0.001619, 0.036375, 0.034786, 9.806527, 0.212373, 0.219031
10.950000, 0.036825, 0.036852, 9.810500, -0.006288, 0.003367, 0.007335, 0.241890, 0.251637, 0.251637, 96.541346, 0.144951, -1.611780, -0.008465, -0.038723, 0.491238, 0.001602, 0.036375, 0.037180, 9.811315, 0.215221, 0.215065
11.000000, 0.036555, 0.037049, 9.808116, -0.003844, -0.001062, 0.005044, 0.246172, 0.242459, 0.242459, 95.063617, 0.147108, -1.639387, -0.008564, -0.038827, 0.495575, 0.001716, 0.036375, 0.037180, 9.806527, 0.216423, 0.213542
11.050000, 0.037884, 0.034255, 9.811471, -0.005066, 0.004436, 0.006724, 0.245588, 0.249029, 0.249029, 95.194429, 0.149262, -1.667291, -0.008653, -0.038794, 0.500070, 0.001645, 0.038769, 0.032393, 9.813708, 0.200036, 0.221225
11.100000, 0.037697, 0.037446, 9.809941, -0.005371, 0.003978, 0.008251, 0.245499, 0.253736, 0.253736, 106.744418, 0.152280, -1.706524, -0.008782, -0.039058, 0.506323, 0.001664, 0.037572, 0.039574, 9.808921, 0.218705, 0.220169
11.150000, 0.038340, 0.036568, 9.810047, -0.003081, -0.000451, 0.005197, 0.251029, 0.246534, 0.246534, 99.084221, 0.154491, -1.735442, -0.008877, -0.039172, 0.510875, 0.001672, 0.038769, 0.035983, 9.810118, 0.213575, 0.223924
11.200000, 0.037161, 0.035499, 9.809371, 0.002112, -0.003811, 0.004739, 0.269341, 0.230384, 0.230384, 101.549913, 0.156687, -1.764579, -0.008975, -0.039058, 0.515228, 0.001717, 0.036375, 0.034786, 9.808921, 0.207345, 0.217054
11.250000, 0.038844, 0.033635, 9.809819, -0.010869, 0.000771, 0.008098, 0.250881, 0.228278, 0.228278, 100.401513, 0.159152, -1.797573, -0.009085, -0.039051, 0.520183, 0.001740, 0.039966, 0.032393, 9.810118, 0.196449, 0.226873
11.300000, 0.040235, 0.033608, 9.809280, -0.005219, -0.002284, 0.003364, 0.248609, 0.218835, 0.218835, 101.183591, 0.161527, -1.829591, -0.009196, -0.039093, 0.524932, 0.001794, 0.041163, 0.033589, 9.808921, 0.196300, 0.235011
11.350000, 0.037919, 0.035751, 9.806192, -0.001859, 0.002909, 0.005349, 0.256202, 0.222905, 0.222905, 97.729750, 0.163723, -1.859331, -0.009315, -0.039183, 0.529213, 0.002016, 0.036375, 0.037180, 9.804134, 0.208884, 0.221554
11.400000, 0.038429, 0.035172, 9.804957, -0.005982, 0.001687, 0.007335, 0.251910, 0.223652, 0.223652, 97.798197, 0.165910, -1.889112, -0.009451, -0.039294, 0.533499, 0.002306, 0.038769, 0.034786, 9.804134, 0.205528, 0.224561
11.450000, 0.037197, 0.033504, 9.805181, -0.009036, 0.000465, 0.007793, 0.238980, 0.220571, 0.220571, 97.642144, 0.168102, -1.919058, -0.009602, -0.039429, 0.537674, 0.002582, 0.036375, 0.032393, 9.805330, 0.195778, 0.217355
11.500000, 0.037422, 0.032119, 9.806707, -0.002928, -0.000604, 0.006113, 0.242478, 0.214971, 0.214971, 100.318149, 0.170297, -1.949308, -0.009762, -0.039464, 0.541835, 0.002774, 0.037572, 0.031196, 9.807724, 0.187655, 0.218637
11.550000, 0.041103, 0.033719, 9.808035, -0.005219, -0.000451, 0.004739, 0.240180, 0.211805, 0.211805, 98.733682, 0.172540, -1.980263, -0.009928, -0.039645, 0.546217, 0.002895, 0.043556, 0.034786, 9.808921, 0.196977, 0.240108
11.600000, 0.041139, 0.033641, 9.807130, -0.008731, -0.001367, 0.006724, 0.228583, 0.206545, 0.206545, 98.085410, 0.174768, -2.010986, -0.010103, -0.039929, 0.550472, 0.003063, 0.041163, 0.033589, 9.806527, 0.196539, 0.240340
11.650000, 0.042589, 0.033610, 9.805332, -0.003233, -0.001215, 0.005197, 0.232323, 0.202815, 0.202815, 98.642803, 0.177005, -2.041887, -0.010296, -0.040188, 0.554766, 0.003330, 0.043556, 0.033589, 9.804134, 0.196393, 0.248860
11.700000, 0.041015, 0.035034, 9.803895, -0.006288, 0.001992, 0.008556, 0.228206, 0.207315, 0.207315, 97.646048, 0.179263, -2.072979, -0.010509, -0.040563, 0.558994, 0.003677, 0.039966, 0.035983, 9.802937, 0.204742, 0.239698
11.750000, 0.039668, 0.034167, 9.808347, -0.003539, -0.004116, 0.003822, 0.231231, 0.194783, 0.194783, 94.542725, 0.181537, -2.104348, -0.010721, -0.040825, 0.563050, 0.003776, 0.038769, 0.033589, 9.811315, 0.199587, 0.231717
11.800000, 0.036256, 0.032384, 9.812282, -0.006440, 0.001076, 0.003059, 0.225465, 0.195566, 0.195566, 94.375584, 0.183814, -2.135869, -0.010921, -0.041004, 0.566926, 0.003657, 0.033982, 0.031196, 9.814905, 0.189097, 0.211704
11.850000, 0.037046, 0.035262, 9.810265, -0.004455, 0.002298, 0.006418, 0.226543, 0.199922, 0.199922, 94.277316, 0.186112, -2.167595, -0.011123, -0.041329, 0.570865, 0.003649, 0.037572, 0.037180, 9.808921, 0.205940, 0.216360
11.900000, 0.037362, 0.032822, 9.808022, -0.004760, 0.001992, 0.004891, 0.225612, 0.203333, 0.203333, 94.924550, 0.188417, -2.199548, -0.011334, -0.041522, 0.574871, 0.003767, 0.037572, 0.031196, 9.806527, 0.191736, 0.218255
11.950000, 0.036052, 0.032564, 9.810716, -0.003691, 0.000923, 0.005808, 0.227371, 0.203124, 0.203124, 98.710180, 0.190733, -2.231759, -0.011541, -0.041674, 0.578812, 0.003735, 0.035179, 0.032393, 9.812511, 0.190178, 0.210545
12.000000, 0.034810, 0.034616, 9.809639, -0.004150, -0.001673, 0.004128, 0.228571, 0.195530, 0.195530, 93.503532, 0.193061, -2.264155, -0.011750, -0.041898, 0.582598, 0.003761, 0.033982, 0.035983, 9.808921, 0.202180, 0.203314
12.050000, 0.039340, 0.035436, 9.809926, -0.004913, 0.000312, 0.006724, 0.227939, 0.195760, 0.195760, 94.725706, 0.195583, -2.299221, -0.011975, -0.042215, 0.586929, 0.003773, 0.042360, 0.035983, 9.810118, 0.206965, 0.229764
12.100000, 0.039715, 0.034328, 9.810759, -0.009189, 0.002450, 0.004433, 0.215473, 0.201901, 0.201901, 94.330060, 0.197959, -2.332199, -0.012182, -0.042562, 0.591047, 0.003739, 0.039966, 0.033589, 9.811315, 0.200477, 0.231939
12.150000, 0.037711, 0.032449, 9.811092, -0.002164, -0.000146, 0.006266, 0.221698, 0.199915, 0.199915, 94.253836, 0.200336, -2.365356, -0.012385, -0.042716, 0.595051, 0.003686, 0.036375, 0.031196, 9.811315, 0.189495, 0.220229
12.200000, 0.039782, 0.036006, 9.812662, -0.011480, 0.002756, 0.005960, 0.204215, 0.206728, 0.206728, 97.704119, 0.202751, -2.398723, -0.012578, -0.043249, 0.599190, 0.003546, 0.041163, 0.038377, 9.813708, 0.210232, 0.232284
12.250000, 0.038456, 0.035992, 9.811853, -0.005371, -0.000604, 0.005808, 0.204244, 0.203623, 0.203623, 97.815294, 0.205194, -2.432303, -0.012767, -0.043771, 0.603225, 0.003450, 0.037572, 0.035983, 9.811315, 0.210171, 0.224561
12.300000, 0.040080, 0.035269, 9.812966, -0.007357, 0.000923, 0.009167, 0.198707, 0.205564, 0.205564, 95.754565, 0.207667, -2.466108, -0.012945, -0.044314, 0.607367, 0.003294, 0.041163, 0.034786, 9.813708, 0.205923, 0.234017
12.350000, 0.037857, 0.035697, 9.811257, -0.006440, 0.003214, 0.007640, 0.196223, 0.212550, 0.212550, 94.618322, 0.210171, -2.500117, -0.013122, -0.044889, 0.611444, 0.003232, 0.036375, 0.035983, 9.810118, 0.208463, 0.221077
12.400000, 0.039123, 0.036587, 9.812010, -0.003233, 0.006268, 0.004128, 0.202848, 0.227687, 0.227687, 96.830186, 0.212709, -2.534389, -0.013293, -0.045470, 0.615739, 0.003130, 0.039966, 0.037180, 9.812511, 0.213641, 0.228447
12.450000, 0.037474, 0.031916, 9.809438, -0.006746, 0.001229, 0.005044, 0.197668, 0.227624, 0.227624, 96.915839, 0.215261, -2.568879, -0.013470, -0.045830, 0.619963, 0.003171, 0.036375, 0.028802, 9.807724, 0.186416, 0.218881
12.500000, 0.038251, 0.031484, 9.809128, -0.011174, 0.004894, 0.004128, 0.180912, 0.237596, 0.237596, 97.028396, 0.217847, -2.603651, -0.013651, -0.046341, 0.624314, 0.003230, 0.038769, 0.031196, 9.808921, 0.183898, 0.223425
12.550000, 0.037844, 0.031311, 9.807568, -0.006593, -0.003505, 0.007640, 0.177488, 0.224340, 0.224340, 95.517978, 0.220465, -2.638705, -0.013843, -0.046854, 0.628522, 0.003375, 0.037572, 0.031196, 9.806527, 0.182917, 0.221081
12.600000, 0.039835, 0.032678, 9.811252, -0.005829, 0.003672, 0.006418, 0.176949, 0.231953, 0.231953, 99.487776, 0.223117, -2.673946, -0.014025, -0.047474, 0.632894, 0.003315, 0.041163, 0.033589, 9.813708, 0.190831, 0.232627
12.650000, 0.040632, 0.032507, 9.809853, -0.002928, 0.000618, 0.005349, 0.184110, 0.231253, 0.231253, 96.306289, 0.225802, -2.709501, -0.014211, -0.048022, 0.637321, 0.003334, 0.041163, 0.032393, 9.808921, 0.189858, 0.237313
12.700000, 0.038796, 0.033156, 9.811448, -0.003844, 0.000465, 0.007182, 0.188606, 0.229415, 0.229415, 94.696472, 0.228506, -2.745171, -0.014390, -0.048541, 0.641616, 0.003264, 0.037572, 0.033589, 9.812511, 0.193621, 0.226554
12.750000, 0.038062, 0.033416, 9.808496, -0.004760, 0.000923, 0.004891, 0.190468, 0.228606, 0.228606, 96.472897, 0.231242, -2.781129, -0.014579, -0.049049, 0.645870, 0.003357, 0.037572, 0.033589, 9.806527, 0.195197, 0.222334
12.800000, 0.038486, 0.033520, 9.808751, -0.013312, -0.001826, 0.005808, 0.169578, 0.220736, 0.220736, 91.628124, 0.234019, -2.817294, -0.014771, -0.049734, 0.650052, 0.003435, 0.038769, 0.033589, 9.808921, 0.195799, 0.224807
12.850000, 0.037938, 0.032126, 9.808853, -0.009036, 0.002145, 0.006877, 0.161050, 0.223752, 0.223752, 95.138119, 0.236830, -2.853655, -0.014968, -0.050410, 0.654229, 0.003508, 0.037572, 0.031196, 9.808921, 0.187651, 0.221602
12.900000, 0.035564, 0.030850, 9.808176, -0.006898, 0.000923, 0.005502, 0.158348, 0.222265, 0.222265, 98.387996, 0.239675, -2.890241, -0.015171, -0.051027, 0.658266, 0.003619, 0.033982, 0.029999, 9.807724, 0.180210, 0.207751
12.950000, 0.039641, 0.033212, 9.807905, -0.009953, 0.000618, 0.005349, 0.148842, 0.221814, 0.221814, 95.925936, 0.242573, -2.927065, -0.015382, -0.051885, 0.662501, 0.003744, 0.042360, 0.034786, 9.807724, 0.194013, 0.231575
13.000000, 0.039836, 0.032720, 9.807796, -0.003997, 0.004130, 0.008251, 0.155752, 0.230822, 0.230822, 91.662471, 0.245548, -2.964592, -0.015603, -0.052652, 0.666898, 0.003878, 0.039966, 0.032393, 9.807724, 0.191145, 0.232715
13.050000, 0.037760, 0.033242, 9.809189, -0.004150, 0.000465, 0.003364, 0.162069, 0.228540, 0.228540, 94.307651, 0.248535, -3.002040, -0.015824, -0.053354, 0.671128, 0.003933, 0.036375, 0.033589, 9.810118, 0.194164, 0.220553
13.100000, 0.036211, 0.032014, 9.807592, -0.004760, 0.005199, 0.004891, 0.165855, 0.238284, 0.238284, 94.241792, 0.251549, -3.039695, -0.016054, -0.053940, 0.675372, 0.004077, 0.035179, 0.031196, 9.806527, 0.187024, 0.211542
13.150000, 0.037028, 0.032959, 9.804799, -0.006898, 0.003367, 0.005197, 0.164168, 0.242726, 0.242726, 92.290610, 0.254593, -3.077490, -0.016305, -0.054583, 0.679688, 0.004376, 0.037572, 0.033589, 9.802937, 0.192601, 0.216375
13.200000, 0.038073, 0.035492, 9.804400, -0.005524, 0.001534, 0.006266, 0.167437, 0.242359, 0.242359, 94.976264, 0.257683, -3.115556, -0.016575, -0.055328, 0.684053, 0.004697, 0.038769, 0.037180, 9.804134, 0.207407, 0.222489
13.250000, 0.037772, 0.033632, 9.804240, -0.006135, 0.002298, 0.010695, 0.168148, 0.243855, 0.243855, 93.310942, 0.260800, -3.153822, -0.016862, -0.055951, 0.688422, 0.005027, 0.037572, 0.032393, 9.804134, 0.196544, 0.220739
13.300000, 0.039807, 0.033607, 9.806330, -0.003386, 0.004588, 0.005349, 0.176161, 0.252129, 0.252129, 98.491300, 0.263956, -3.192457, -0.017160, -0.056516, 0.693001, 0.005243, 0.041163, 0.033589, 9.807724, 0.196352, 0.232577
13.350000, 0.038466, 0.035032, 9.807167, -0.002775, 0.002909, 0.006571, 0.185874, 0.254690, 0.254690, 102.343821, 0.267136, -3.231246, -0.017464, -0.057087, 0.697517, 0.005411, 0.037572, 0.035983, 9.807724, 0.204666, 0.224725
13.400000, 0.038648, 0.032730, 9.806783, -0.008426, 0.003978, 0.004280, 0.178935, 0.259888, 0.259888, 97.184267, 0.270345, -3.270297, -0.017780, -0.057615, 0.702097, 0.005602, 0.038769, 0.031196, 9.806527, 0.191224, 0.225796
13.450000, 0.040157, 0.032528, 9.809502, -0.004302, 0.001381, 0.007946, 0.183388, 0.258370, 0.258370, 95.983658, 0.273578, -3.309584, -0.018094, -0.058100, 0.706748, 0.005642, 0.041163, 0.032393, 9.811315, 0.189987, 0.234547
13.500000, 0.039324, 0.033165, 9.808435, -0.003233, 0.003978, 0.005655, 0.190641, 0.263418, 0.263418, 96.611252, 0.276837, -3.349157, -0.018415, -0.058556, 0.711407, 0.005741, 0.038769, 0.033589, 9.807724, 0.193729, 0.229709
13.550000, 0.038273, 0.034138, 9.805136, -0.007815, 0.000312, 0.005197, 0.185644, 0.257823, 0.257823, 97.858775, 0.280140, -3.389106, -0.018758, -0.059111, 0.715958, 0.006024, 0.037572, 0.034786, 9.802937, 0.199479, 0.223644
13.600000, 0.036416, 0.035963, 9.805971, -0.007967, -0.000757, 0.006113, 0.181450, 0.248902, 0.248902, 96.409098, 0.283476, -3.429189, -0.019111, -0.059792, 0.720297, 0.006258, 0.035179, 0.037180, 9.806527, 0.210128, 0.212777
13.650000, 0.037828, 0.037411, 9.804150, -0.006746, 0.003214, 0.007182, 0.181524, 0.251687, 0.251687, 95.537685, 0.286859, -3.469538, -0.019487, -0.060561, 0.724735, 0.006593, 0.038769, 0.038377, 9.802937, 0.218630, 0.221066
13.700000, 0.036957, 0.037991, 9.802704, -0.007051, -0.000909, 0.004739, 0.181144, 0.242867, 0.242867, 93.329244, 0.290281, -3.510062, -0.019886, -0.061343, 0.729032, 0.007007, 0.036375, 0.038377, 9.801740, 0.222048, 0.216004
13.750000, 0.035172, 0.034632, 9.804280, -0.009189, 0.005199, 0.005197, 0.173776, 0.250042, 0.250042, 97.911417, 0.293738, -3.550847, -0.020302, -0.062008, 0.733313, 0.007334, 0.033982, 0.032393, 9.805330, 0.202384, 0.205540
13.800000, 0.036612, 0.036161, 9.803474, -0.005066, 0.003367, 0.005960, 0.178640, 0.252324, 0.252324, 97.066730, 0.297233, -3.591838, -0.020740, -0.062725, 0.737686, 0.007707, 0.037572, 0.037180, 9.802937, 0.211336, 0.213974
13.850000, 0.035752, 0.034618, 9.803152, -0.003844, 0.001534, 0.007793, 0.185802, 0.249092, 0.249092, 95.221404, 0.300755, -3.633074, -0.021199, -0.063281, 0.741995, 0.008096, 0.035179, 0.033589, 9.802937, 0.202327, 0.208955
13.900000, 0.034690, 0.033283, 9.801587, -0.007204, 0.001992, 0.006418, 0.182991, 0.246739, 0.246739, 97.523820, 0.304302, -3.674520, -0.021687, -0.063787, 0.746226, 0.008573, 0.033982, 0.032393, 9.800543, 0.194554, 0.202780
13.950000, 0.034983, 0.033467, 9.801679, -0.001706, 0.002145, 0.005960, 0.195079, 0.244968, 0.244968, 99.132894, 0.307877, -3.716294, -0.022202, -0.064201, 0.750473, 0.009045, 0.035179, 0.033589, 9.801740, 0.195628, 0.204492
14.000000, 0.039409, 0.036413, 9.799561, -0.007204, -0.002284, 0.008098, 0.192979, 0.233403, 0.233403, 93.658433, 0.311487, -3.758271, -0.022753, -0.064807, 0.754835, 0.009633, 0.042360, 0.038377, 9.798150, 0.212894, 0.230413
14.050000, 0.039743, 0.033283, 9.801587, -0.005371, 0.000771, 0.006877, 0.194584, 0.230932, 0.230932, 95.297991, 0.315121, -3.800568, -0.023328, -0.065219, 0.759217, 0.010111, 0.039966, 0.031196, 9.802937, 0.194553, 0.232319
14.100000, 0.037004, 0.034903, 9.805987, -0.009342, 0.001381, 0.008098, 0.186242, 0.229067, 0.229067, 95.489489, 0.318793, -3.843110, -0.023909, -0.065781, 0.763419, 0.010343, 0.035179, 0.035983, 9.808921, 0.203933, 0.216212
14.150000, 0.037345, 0.034833, 9.804875, -0.004608, -0.000757, 0.006877, 0.191095, 0.221787, 0.221787, 96.132222, 0.322481, -3.885768, -0.024506, -0.066285, 0.767563, 0.010636, 0.037572, 0.034786, 9.804134, 0.203547, 0.218228
14.200000, 0.038918, 0.035523, 9.804430, -0.009495, 0.000465, 0.004280, 0.182968, 0.218964, 0.218964, 97.584844, 0.326214, -3.928743, -0.025123, -0.066915, 0.771765, 0.010954, 0.039966, 0.035983, 9.804134, 0.207589, 0.227427
14.250000, 0.035238, 0.032927, 9.807125, -0.005066, 0.003214, 0.009167, 0.186123, 0.222056, 0.222056, 93.299113, 0.329958, -3.971842, -0.025744, -0.067346, 0.775801, 0.011121, 0.032785, 0.031196, 9.808921, 0.192364, 0.205868
14.300000, 0.034484, 0.034042, 9.806766, -0.009036, 0.000618, 0.007029, 0.179022, 0.217660, 0.217660, 94.493684, 0.333738, -4.015200, -0.026377, -0.067892, 0.779747, 0.011309, 0.033982, 0.034786, 9.806527, 0.198890, 0.201472
14.350000, 0.039209, 0.037361, 9.803750, -0.003386, -0.000146, 0.006877, 0.188938, 0.213585, 0.213585, 92.979830, 0.337555, -4.058762, -0.027033, -0.068534, 0.783905, 0.011663, 0.042360, 0.039574, 9.801740, 0.218346, 0.229148
14.400000, 0.040381, 0.033662, 9.804698, -0.005677, 0.003825, 0.004891, 0.190513, 0.220894, 0.220894, 96.990474, 0.341387, -4.102541, -0.027704, -0.068966, 0.788215, 0.011966, 0.041163, 0.031196, 9.805330, 0.196708, 0.235975
14.450000, 0.039414, 0.034337, 9.806514, -0.005982, 0.004283, 0.007335, 0.191471, 0.228491, 0.228491, 95.696084, 0.345252, -4.146638, -0.028385, -0.069427, 0.792548, 0.012169, 0.038769, 0.034786, 9.807724, 0.200613, 0.230279
14.500000, 0.036873, 0.034606, 9.805086, -0.001859, 0.005352, 0.005197, 0.203434, 0.237257, 0.237257, 95.332159, 0.349135, -4.190985, -0.029084, -0.069783, 0.796833, 0.012452, 0.035179, 0.034786, 9.804134, 0.202219, 0.215463
14.550000, 0.038729, 0.036869, 9.805233, -0.010411, 0.003978, 0.005197, 0.192814, 0.242471, 0.242471, 97.366769, 0.353072, -4.235744, -0.029801, -0.070383, 0.801267, 0.012728, 0.039966, 0.038377, 9.805330, 0.215435, 0.226304
14.600000, 0.038035, 0.037773, 9.803855, -0.002470, 0.001229, 0.005808, 0.204502, 0.239661, 0.239661, 95.780620, 0.357025, -4.280598, -0.030537, -0.070917, 0.805626, 0.013079, 0.037572, 0.038377, 9.802937, 0.220753, 0.222281
14.650000, 0.037757, 0.034545, 9.803304, -0.008273, 0.000923, 0.003364, 0.198574, 0.236081, 0.236081, 99.337058, 0.361004, -4.325763, -0.031296, -0.071336, 0.809952, 0.013461, 0.037572, 0.032393, 9.802937, 0.201897, 0.220672
14.700000, 0.039082, 0.036126, 9.805238, -0.011174, 0.000771, 0.008251, 0.186090, 0.232893, 0.232893, 96.879113, 0.365011, -4.371020, -0.032065, -0.071971, 0.814288, 0.013734, 0.039966, 0.037180, 9.806527, 0.211095, 0.228371
14.750000, 0.038894, 0.033168, 9.803857, -0.002775, 0.001840, 0.006418, 0.195591, 0.232684, 0.232684, 95.814256, 0.369034, -4.416539, -0.032856, -0.072354, 0.818636, 0.014085, 0.038769, 0.031196, 9.802937, 0.193838, 0.227305
14.800000, 0.037383, 0.034857, 9.802587, -0.003386, 0.004588, 0.004586, 0.203497, 0.239106, 0.239106, 96.736011, 0.373077, -4.462264, -0.033671, -0.072757, 0.822956, 0.014506, 0.036375, 0.035983, 9.801740, 0.203736, 0.218500
14.850000, 0.038933, 0.034096, 9.802079, -0.006135, 0.005505, 0.005655, 0.203196, 0.248095, 0.248095, 96.455552, 0.377190, -4.508795, -0.034523, -0.073143, 0.827503, 0.014961, 0.039966, 0.033589, 9.801740, 0.199301, 0.227570
14.900000, 0.037398, 0.032356, 9.802594, -0.001401, 0.000160, 0.004280, 0.214698, 0.241515, 0.241515, 96.165935, 0.381268, -4.555146, -0.035390, -0.073308, 0.831881, 0.015384, 0.036375, 0.031196, 9.802937, 0.189118, 0.218590
14.950000, 0.038221, 0.032378, 9.804236, -0.004913, 0.002603, 0.005349, 0.215963, 0.242193, 0.242193, 98.905555, 0.385351, -4.601690, -0.036271, -0.073477, 0.836307, 0.015715, 0.038769, 0.032393, 9.805330, 0.189214, 0.223360
15.000000, 0.039986, 0.033105, 9.805611, -0.011938, 0.000923, 0.007029, 0.198747, 0.239079, 0.239079, 94.832756, 0.389464, -4.648517, -0.037165, -0.073854, 0.840786, 0.015969, 0.041163, 0.033589, 9.806527, 0.193435, 0.233642
15.050000, 0.039974, 0.033396, 9.804006, -0.007204, -0.001215, 0.003517, 0.195480, 0.230511, 0.230511, 97.066730, 0.393599, -4.695556, -0.038080, -0.074273, 0.845174, 0.016312, 0.039966, 0.033589, 9.802937, 0.195166, 0.233610
15.100000, 0.037815, 0.033512, 9.806237, -0.005524, 0.001381, 0.006113, 0.196956, 0.228529, 0.228529, 97.500009, 0.397763, -4.742915, -0.039006, -0.074677, 0.849433, 0.016531, 0.036375, 0.033589, 9.807724, 0.195801, 0.220942
15.150000, 0.036951, 0.034277, 9.806411, -0.005524, 0.001840, 0.006571, 0.198652, 0.227511, 0.227511, 94.144624, 0.401946, -4.790447, -0.039941, -0.075096, 0.853628, 0.016739, 0.036375, 0.034786, 9.806527, 0.200265, 0.215892
15.200000, 0.037324, 0.033146, 9.807917, -0.007815, 0.000618, 0.007182, 0.193659, 0.223456, 0.223456, 97.328520, 0.406149, -4.838192, -0.040881, -0.075501, 0.857805, 0.016864, 0.037572, 0.032393, 9.808921, 0.193631, 0.218036
15.250000, 0.038909, 0.034848, 9.807801, -0.008578, 0.001076, 0.008251, 0.187754, 0.221593, 0.221593, 96.792701, 0.410385, -4.886130, -0.041828, -0.076065, 0.862032, 0.016995, 0.039966, 0.035983, 9.807724, 0.203576, 0.227299
15.300000, 0.036671, 0.034811, 9.807037, -0.003386, 0.002298, 0.005044, 0.196087, 0.222151, 0.222151, 93.950215, 0.414638, -4.934234, -0.042784, -0.076530, 0.866145, 0.017168, 0.035179, 0.034786, 9.806527, 0.203375, 0.214240
15.350000, 0.032903, 0.031924, 9.807449, -0.007815, 0.001229, 0.005960, 0.190819, 0.218169, 0.218169, 93.188247, 0.418911, -4.982616, -0.043749, -0.076852, 0.870030, 0.017318, 0.030391, 0.029999, 9.807724, 0.186499, 0.192221
15.400000, 0.034268, 0.030769, 9.804024, -0.004455, -0.001062, 0.007029, 0.194341, 0.208935, 0.208935, 94.442627, 0.423188, -5.031154, -0.044736, -0.077067, 0.873907, 0.017657, 0.035179, 0.029999, 9.801740, 0.179815, 0.200267
15.450000, 0.034815, 0.031743, 9.806962, -0.009953, 0.002298, 0.007029, 0.183403, 0.209506, 0.209506, 94.777306, 0.427488, -5.079893, -0.045729, -0.077434, 0.877805, 0.017833, 0.035179, 0.032393, 9.808921, 0.185453, 0.203397
15.500000, 0.035033, 0.030697, 9.804547, -0.006135, 0.000618, 0.007640, 0.182956, 0.205661, 0.205661, 95.248661, 0.431809, -5.128915, -0.046744, -0.077742, 0.881689, 0.018143, 0.035179, 0.029999, 9.802937, 0.179383, 0.204724
15.550000, 0.037275, 0.029560, 9.805017, -0.005066, 0.001840, 0.006724, 0.184870, 0.206316, 0.206316, 98.569142, 0.436152, -5.178274, -0.047777, -0.077988, 0.885719, 0.018429, 0.038769, 0.028802, 9.805330, 0.172732, 0.217813
15.600000, 0.037453, 0.029823, 9.808796, -0.009800, 0.002145, 0.006418, 0.174165, 0.207836, 0.207836, 96.098875, 0.440510, -5.227749, -0.048806, -0.078354, 0.889754, 0.018504, 0.037572, 0.029999, 9.811315, 0.174204, 0.218772
15.650000, 0.036088, 0.032801, 9.809589, -0.008426, 0.004588, 0.004280, 0.169198, 0.215157, 0.215157, 92.963621, 0.444904, -5.277444, -0.049835, -0.078921, 0.893766, 0.018535, 0.035179, 0.034786, 9.810118, 0.191582, 0.210783
15.700000, 0.037697, 0.033274, 9.809906, -0.007051, 0.002909, 0.008709, 0.168515, 0.218166, 0.218166, 94.230613, 0.449338, -5.327441, -0.050866, -0.079524, 0.897898, 0.018549, 0.038769, 0.033589, 9.810118, 0.194339, 0.220170
15.750000, 0.038340, 0.032745, 9.812187, -0.010564, 0.001381, 0.006266, 0.158412, 0.217183, 0.217183, 93.292839, 0.453810, -5.377657, -0.051887, -0.080184, 0.902053, 0.018437, 0.038769, 0.032393, 9.813708, 0.191205, 0.223876
15.800000, 0.040752, 0.031816, 9.813100, -0.007967, 0.003214, 0.010084, 0.155634, 0.222200, 0.222200, 97.564129, 0.458309, -5.428025, -0.052895, -0.080834, 0.906383, 0.018275, 0.042360, 0.031196, 9.813708, 0.185759, 0.237935
15.850000, 0.039562, 0.032162, 9.814183, -0.007509, 0.001076, 0.005349, 0.154514, 0.220701, 0.220701, 92.447049, 0.462849, -5.478668, -0.053891, -0.081496, 0.910636, 0.018053, 0.038769, 0.032393, 9.814905, 0.187760, 0.230964
15.900000, 0.039086, 0.033018, 9.815334, -0.006746, 0.000771, 0.004891, 0.155968, 0.218323, 0.218323, 97.858775, 0.467422, -5.529462, -0.054867, -0.082190, 0.914830, 0.017766, 0.038769, 0.033589, 9.816102, 0.192738, 0.228159
15.950000, 0.038896, 0.034797, 9.815077, -0.005219, 0.000465, 0.006724, 0.162244, 0.215260, 0.215260, 93.274934, 0.472036, -5.580498, -0.055829, -0.082913, 0.918984, 0.017494, 0.038769, 0.035983, 9.814905, 0.203127, 0.227054
16.000000, 0.040256, 0.031200, 9.817128, -0.003997, 0.003367, 0.003364, 0.169841, 0.220740, 0.220740, 99.172553, 0.476682, -5.631921, -0.056769, -0.083385, 0.923298, 0.017108, 0.041163, 0.028802, 9.818495, 0.182092, 0.234944
16.050000, 0.038646, 0.034070, 9.815794, -0.005371, 0.001992, 0.004739, 0.174513, 0.221509, 0.221509, 98.758222, 0.481363, -5.683551, -0.057693, -0.083978, 0.927517, 0.016795, 0.037572, 0.035983, 9.814905, 0.198867, 0.225577
16.100000, 0.037284, 0.030909, 9.818133, -0.011327, 0.004741, 0.007793, 0.161738, 0.228925, 0.228925, 97.604869, 0.486074, -5.735430, -0.058589, -0.084528, 0.931735, 0.016353, 0.036375, 0.028802, 9.819692, 0.180376, 0.217574
16.150000, 0.038175, 0.031799, 9.816196, -0.006288, 0.003978, 0.006266, 0.163720, 0.234121, 0.234121, 95.568342, 0.490809, -5.787435, -0.059468, -0.085121, 0.936039, 0.016020, 0.038769, 0.032393, 9.814905, 0.185606, 0.222819
16.200000, 0.037813, 0.030719, 9.816858, -0.002622, 0.001534, 0.004280, 0.174864, 0.232260, 0.232260, 95.194429, 0.495567, -5.839727, -0.060326, -0.085543, 0.940325, 0.015650, 0.037572, 0.029999, 9.817299, 0.179289, 0.220694
16.250000, 0.039105, 0.034596, 9.815686, -0.010411, 0.001534, 0.008098, 0.166230, 0.231069, 0.231069, 95.630683, 0.500378, -5.892308, -0.061169, -0.086267, 0.944648, 0.015344, 0.039966, 0.037180, 9.814905, 0.201938, 0.228259
16.300000, 0.036031, 0.033992, 9.815217, -0.004302, 0.002450, 0.005960, 0.174276, 0.231051, 0.231051, 98.398046, 0.505212, -5.945035, -0.061997, -0.086874, 0.948803, 0.015064, 0.033982, 0.033589, 9.814905, 0.198424, 0.210327
16.350000, 0.036238, 0.033750, 9.815748, -0.007051, 0.002909, 0.007029, 0.174397, 0.232278, 0.232278, 97.902739, 0.510076, -5.997957, -0.062806, -0.087478, 0.952978, 0.014755, 0.036375, 0.033589, 9.816102, 0.197003, 0.211522
16.400000, 0.039193, 0.035808, 9.817397, -0.001248, -0.001215, 0.007029, 0.190853, 0.223706, 0.223706, 94.493684, 0.514973, -6.051149, -0.063591, -0.088046, 0.957242, 0.014354, 0.041163, 0.037180, 9.818495, 0.208979, 0.228732
16.450000, 0.038220, 0.035913, 9.817338, -0.001859, -0.001062, 0.003975, 0.204561, 0.215769, 0.215769, 96.033253, 0.519886, -6.104518, -0.064353, -0.088477, 0.961385, 0.013956, 0.037572, 0.035983, 9.817299, 0.209593, 0.223059
16.500000, 0.039268, 0.036673, 9.815878, -0.005219, -0.000604, 0.004586, 0.208687, 0.210118, 0.210118, 95.110418, 0.524830, -6.158195, -0.065100, -0.088910, 0.965538, 0.013637, 0.039966, 0.037180, 9.814905, 0.214060, 0.229205
16.550000, 0.038969, 0.036259, 9.812422, -0.005677, 0.000923, 0.006724, 0.211131, 0.208867, 0.208867, 91.360330, 0.529807, -6.212248, -0.065848, -0.089279, 0.969679, 0.013510, 0.038769, 0.035983, 9.810118, 0.211718, 0.227539
16.600000, 0.040285, 0.034657, 9.810321, -0.003081, 0.001229, 0.008404, 0.219584, 0.209151, 0.209151, 96.439205, 0.534778, -6.266411, -0.066597, -0.089482, 0.973900, 0.013501, 0.041163, 0.033589, 9.808921, 0.202409, 0.235276
16.650000, 0.040812, 0.034735, 9.810199, -0.005524, 0.004588, 0.005655, 0.220912, 0.218626, 0.218626, 94.988237, 0.539768, -6.320904, -0.067348, -0.089683, 0.978248, 0.013499, 0.041163, 0.034786, 9.810118, 0.202863, 0.238355
16.700000, 0.038868, 0.033329, 9.812305, -0.007509, 0.001229, 0.006877, 0.216211, 0.217694, 0.217694, 93.528516, 0.544799, -6.375996, -0.068093, -0.089832, 0.982511, 0.013379, 0.037572, 0.032393, 9.813708, 0.194614, 0.226955
16.750000, 0.037373, 0.032767, 9.810274, -0.004302, 0.000312, 0.008251, 0.220059, 0.213781, 0.213781, 95.002530, 0.549800, -6.430979, -0.068836, -0.089897, 0.986633, 0.013373, 0.036375, 0.032393, 9.808921, 0.191372, 0.218268
16.800000, 0.038929, 0.033979, 9.808026, -0.000942, -0.001367, 0.006113, 0.232975, 0.206400, 0.206400, 96.924491, 0.554794, -6.486117, -0.069589, -0.089912, 0.990770, 0.013490, 0.039966, 0.034786, 9.806527, 0.198492, 0.227407
16.850000, 0.036679, 0.033027, 9.812153, -0.007051, 0.001992, 0.005349, 0.228213, 0.207551, 0.207551, 97.878623, 0.559778, -6.541368, -0.070327, -0.089916, 0.994788, 0.013379, 0.035179, 0.032393, 9.814905, 0.192852, 0.214174
16.900000, 0.037215, 0.034801, 9.812368, -0.002775, 0.003825, 0.006724, 0.235813, 0.213727, 0.213727, 93.472794, 0.564768, -6.596887, -0.071059, -0.089950, 0.998893, 0.013256, 0.037572, 0.035983, 9.812511, 0.203204, 0.217300
16.950000, 0.036711, 0.034074, 9.811736, -0.005677, 0.001992, 0.006724, 0.234743, 0.214376, 0.214376, 92.451974, 0.569751, -6.652571, -0.071786, -0.089941, 1.002976, 0.013168, 0.036375, 0.033589, 9.811315, 0.198973, 0.214373
17.000000, 0.038664, 0.033783, 9.811483, -0.005371, 0.000465, 0.003975, 0.234334, 0.211779, 0.211779, 87.099494, 0.574738, -6.708580, -0.072511, -0.089893, 1.007149, 0.013094, 0.039966, 0.033589, 9.811315, 0.197280, 0.225783
17.050000, 0.038727, 0.035103, 9.812818, -0.004760, -0.000451, 0.002601, 0.236040, 0.207011, 0.207011, 91.477214, 0.579727, -6.764839, -0.073225, -0.089873, 1.011278, 0.012946, 0.038769, 0.035983, 9.813708, 0.204960, 0.226120
17.100000, 0.039470, 0.034913, 9.812634, -0.003844, 0.002603, 0.003822, 0.239876, 0.211076, 0.211076, 92.353297, 0.584713, -6.821373, -0.073933, -0.089791, 1.015492, 0.012808, 0.039966, 0.034786, 9.812511, 0.203854, 0.230464
17.150000, 0.039050, 0.034837, 9.810406, -0.003081, -0.000909, 0.004739, 0.245317, 0.205402, 0.205402, 95.814256, 0.589685, -6.878084, -0.074643, -0.089645, 1.019628, 0.012793, 0.038769, 0.034786, 9.808921, 0.203456, 0.228059
17.200000, 0.036727, 0.035525, 9.810233, -0.003539, 0.001229, 0.005960, 0.249317, 0.204874, 0.204874, 91.436084, 0.594644, -6.934972, -0.075352, -0.089479, 1.023627, 0.012787, 0.035179, 0.035983, 9.810118, 0.207476, 0.214499
17.250000, 0.037234, 0.033645, 9.809446, -0.008426, 0.003825, 0.007335, 0.239124, 0.211518, 0.211518, 90.772134, 0.599587, -6.992037, -0.076064, -0.089294, 1.027713, 0.012826, 0.037572, 0.032393, 9.808921, 0.196517, 0.217478
17.300000, 0.038155, 0.032894, 9.810567, -0.007509, 0.001229, 0.006877, 0.231669, 0.211200, 0.211200, 96.466882, 0.604520, -7.049308, -0.076772, -0.089140, 1.031844, 0.012804, 0.038769, 0.032393, 9.811315, 0.192104, 0.222832
17.350000, 0.040678, 0.037620, 9.811016, -0.007357, 0.001229, 0.005502, 0.227117, 0.212037, 0.212037, 94.567648, 0.609478, -7.106895, -0.077479, -0.089298, 1.036112, 0.012755, 0.042360, 0.040770, 9.811315, 0.219694, 0.237553
17.400000, 0.038815, 0.037356, 9.806886, -0.007204, 0.002909, 0.004891, 0.223180, 0.216534, 0.216534, 95.002530, 0.614440, -7.164644, -0.078200, -0.089477, 1.040312, 0.012936, 0.037572, 0.037180, 9.804134, 0.218245, 0.226767
17.450000, 0.036633, 0.035096, 9.805953, -0.010258, -0.001673, 0.006724, 0.210443, 0.207631, 0.207631, 91.058113, 0.619410, -7.222620, -0.078936, -0.089631, 1.044308, 0.013168, 0.035179, 0.033589, 9.805330, 0.205062, 0.214043
17.500000, 0.037197, 0.033474, 9.806297, -0.004455, 0.000465, 0.004891, 0.213317, 0.205323, 0.205323, 94.162435, 0.624382, -7.280849, -0.079684, -0.089663, 1.048322, 0.013381, 0.037572, 0.032393, 9.806527, 0.195578, 0.217328
17.550000, 0.037422, 0.033543, 9.804999, -0.006288, 0.002756, 0.004433, 0.211100, 0.209396, 0.209396, 94.398705, 0.629377, -7.339533, -0.080453, -0.089721, 1.052401, 0.013667, 0.037572, 0.033589, 9.804134, 0.196009, 0.218674
17.600000, 0.038230, 0.034289, 9.806634, -0.001706, 0.003367, 0.006571, 0.221473, 0.215160, 0.215160, 97.032455, 0.634356, -7.398273, -0.081227, -0.089735, 1.056570, 0.013862, 0.038769, 0.034786, 9.807724, 0.200333, 0.223360
17.650000, 0.039272, 0.036024, 9.804416, -0.007051, 0.000312, 0.005044, 0.217600, 0.212879, 0.212879, 97.545898, 0.639357, -7.457337, -0.082024, -0.089898, 1.060774, 0.014181, 0.039966, 0.037180, 9.802937, 0.210515, 0.229496
17.700000, 0.038970, 0.038154, 9.807119, -0.001706, 0.002298, 0.005655, 0.229090, 0.215942, 0.215942, 94.118190, 0.644356, -7.516505, -0.082824, -0.090075, 1.064981, 0.014348, 0.038769, 0.039574, 9.808921, 0.222900, 0.227671
17.750000, 0.038131, 0.033261, 9.806046, -0.006898, -0.001673, 0.005197, 0.223809, 0.207921, 0.207921, 98.214299, 0.649344, -7.575861, -0.083638, -0.090038, 1.069076, 0.014576, 0.037572, 0.029999, 9.805330, 0.194337, 0.222796
17.800000, 0.037796, 0.034894, 9.805617, -0.003081, 0.000465, 0.006113, 0.229671, 0.206064, 0.206064, 97.785729, 0.654340, -7.635500, -0.084468, -0.090049, 1.073136, 0.014827, 0.037572, 0.035983, 9.805330, 0.203890, 0.220845
17.850000, 0.037662, 0.035548, 9.804727, 0.000127, 0.002145, 0.006571, 0.243811, 0.208785, 0.208785, 94.592845, 0.659326, -7.695339, -0.085315, -0.089971, 1.077218, 0.015127, 0.037572, 0.035983, 9.804134, 0.207726, 0.220081
17.900000, 0.037608, 0.035091, 9.806525, -0.002011, -0.000604, 0.005655, 0.250921, 0.204021, 0.204021, 98.387996, 0.664302, -7.755415, -0.086170, -0.089811, 1.081261, 0.015327, 0.037572, 0.034786, 9.807724, 0.205020, 0.219727
17.950000, 0.037587, 0.035626, 9.805808, -0.006593, 0.001840, 0.007487, 0.245457, 0.206127, 0.206127, 98.875871, 0.669274, -7.815665, -0.087039, -0.089753, 1.085313, 0.015567, 0.037572, 0.035983, 9.805330, 0.208163, 0.219618
18.000000, 0.036860, 0.032968, 9.805522, -0.005371, -0.000604, 0.006266, 0.242374, 0.201321, 0.201321, 95.194429, 0.674240, -7.876225, -0.087925, -0.089579, 1.089295, 0.015823, 0.036375, 0.031196, 9.805330, 0.192637, 0.215378
18.050000, 0.038724, 0.035495, 9.806125, -0.007967, 0.002450, 0.004280, 0.233595, 0.205823, 0.205823, 97.523820, 0.679221, -7.937065, -0.088822, -0.089649, 1.093409, 0.016046, 0.039966, 0.037180, 9.806527, 0.207390, 0.226253
18.100000, 0.038751, 0.034352, 9.807803, -0.006593, -0.000604, 0.003822, 0.228538, 0.201959, 0.201959, 94.963606, 0.684211, -7.998206, -0.089725, -0.089705, 1.097494, 0.016176, 0.038769, 0.033589, 9.808921, 0.200675, 0.226375
18.150000, 0.035889, 0.035331, 9.806319, -0.004608, 0.004130, 0.007182, 0.229470, 0.209761, 0.209761, 95.063617, 0.689192, -8.059380, -0.090639, -0.089802, 1.101479, 0.016387, 0.033982, 0.035983, 9.805330, 0.206425, 0.209690
18.200000, 0.036899, 0.035004, 9.810035, -0.004455, -0.001215, 0.003517, 0.230522, 0.203245, 0.203245, 94.908096, 0.694179, -8.120814, -0.091549, -0.089869, 1.105464, 0.016393, 0.037572, 0.034786, 9.812511, 0.204439, 0.215508
18.250000, 0.037303, 0.032719, 9.807930, -0.009342, 0.001687, 0.005197, 0.217473, 0.205121, 0.205121, 98.300245, 0.699163, -8.182375, -0.092467, -0.089948, 1.109481, 0.016515, 0.037572, 0.031196, 9.806527, 0.191136, 0.217914
18.300000, 0.038183, 0.034677, 9.806370, -0.000179, 0.001229, 0.004280, 0.230469, 0.206066, 0.206066, 97.513628, 0.704157, -8.244233, -0.093400, -0.090028, 1.113562, 0.016724, 0.038769, 0.035983, 9.805330, 0.202608, 0.223088
18.350000, 0.036380, 0.036179, 9.807183, -0.004760, 0.001229, 0.006877, 0.230922, 0.206203, 0.206203, 94.976264, 0.713009, -8.354264, -0.095079, -0.090301, 1.120580, 0.017013, 0.035179, 0.037180, 9.807724, 0.211363, 0.212539
18.400000, 0.035659, 0.036780, 9.806789, -0.008120, 0.003061, 0.008404, 0.222640, 0.210893, 0.210893, 97.417837, 0.718048, -8.416833, -0.096040, -0.090577, 1.124557, 0.017198, 0.035179, 0.037180, 9.806527, 0.214880, 0.208336
18.450000, 0.037525, 0.037020, 9.806632, -0.005371, 0.001534, 0.006571, 0.222345, 0.211990, 0.211990, 97.744711, 0.723100, -8.479576, -0.097010, -0.090889, 1.128641, 0.017393, 0.038769, 0.037180, 9.806527, 0.216287, 0.219240
18.500000, 0.038990, 0.035680, 9.806569, -0.003386, -0.001520, 0.007182, 0.226735, 0.205567, 0.205567, 94.603495, 0.728157, -8.542514, -0.097991, -0.091089, 1.132753, 0.017590, 0.039966, 0.034786, 9.806527, 0.208459, 0.227798
18.550000, 0.037421, 0.037298, 9.805108, -0.008731, -0.000451, 0.007182, 0.217281, 0.201840, 0.201840, 99.534332, 0.733295, -8.606337, -0.099001, -0.091475, 1.136768, 0.017871, 0.036375, 0.038377, 9.804134, 0.217946, 0.218666
18.600000, 0.041102, 0.033637, 9.803805, -0.007357, -0.000604, 0.005349, 0.210585, 0.199641, 0.199641, 97.431408, 0.738406, -8.669912, -0.100024, -0.091747, 1.140947, 0.018224, 0.043556, 0.031196, 9.802937, 0.196578, 0.240209
18.650000, 0.038266, 0.035045, 9.804720, -0.003997, -0.000909, 0.008556, 0.213867, 0.195677, 0.195677, 93.509745, 0.743524, -8.733582, -0.101061, -0.092044, 1.144921, 0.018524, 0.036375, 0.035983, 9.805330, 0.204787, 0.223613
18.700000, 0.041440, 0.031299, 9.805804, -0.006288, 0.000618, 0.007793, 0.209172, 0.197518, 0.197518, 94.518071, 0.748643, -8.797461, -0.102109, -0.092191, 1.149101, 0.018765, 0.043556, 0.028802, 9.806527, 0.182880, 0.242135
18.750000, 0.041274, 0.030519, 9.805520, -0.001401, 0.005047, 0.008709, 0.217367, 0.211020, 0.211020, 93.939769, 0.753755, -8.861503, -0.103170, -0.092221, 1.153405, 0.019023, 0.041163, 0.029999, 9.805330, 0.178327, 0.241169
18.800000, 0.039771, 0.029489, 9.803970, -0.005219, 0.001992, 0.007640, 0.214269, 0.214852, 0.214852, 95.194429, 0.758868, -8.925814, -0.104254, -0.092214, 1.157668, 0.019367, 0.038769, 0.028802, 9.802937, 0.172335, 0.232425
18.850000, 0.037016, 0.031231, 9.804786, -0.006440, -0.001215, 0.005960, 0.208801, 0.208746, 0.208746, 90.164171, 0.763986, -8.990291, -0.105352, -0.092316, 1.161704, 0.019665, 0.035179, 0.032393, 9.805330, 0.182502, 0.216304
18.900000, 0.038786, 0.029774, 9.805831, -0.001859, -0.000146, 0.005808, 0.215175, 0.206720, 0.206720, 93.950215, 0.769100, -9.055038, -0.106462, -0.092273, 1.165834, 0.019905, 0.039966, 0.028802, 9.806527, 0.173967, 0.226624
18.950000, 0.036622, 0.030627, 9.804094, -0.002928, -0.000298, 0.006571, 0.218494, 0.203557, 0.203557, 96.165935, 0.774219, -9.120094, -0.107595, -0.092230, 1.169819, 0.020241, 0.035179, 0.031196, 9.802937, 0.178984, 0.214017
19.000000, 0.036474, 0.032404, 9.803400, -0.005371, 0.003672, 0.006266, 0.215749, 0.211124, 0.211124, 95.814256, 0.779348, -9.185389, -0.108750, -0.092318, 1.173857, 0.020615, 0.036375, 0.033589, 9.802937, 0.189385, 0.213169
19.050000, 0.036415, 0.034552, 9.802404, -0.002470, 0.003061, 0.006724, 0.221763, 0.216489, 0.216489, 93.686230, 0.784490, -9.250949, -0.109931, -0.092466, 1.177939, 0.021046, 0.036375, 0.035983, 9.801740, 0.201955, 0.212845
19.100000, 0.037109, 0.035411, 9.803442, -0.005982, 0.001992, 0.005960, 0.218332, 0.218910, 0.218910, 91.595166, 0.789638, -9.316653, -0.111130, -0.092685, 1.182072, 0.021418, 0.037572, 0.035983, 9.804134, 0.206953, 0.216881
19.150000, 0.040259, 0.034318, 9.803857, -0.002164, 0.002603, 0.005808, 0.224769, 0.224137, 0.224137, 92.476899, 0.794788, -9.382584, -0.112347, -0.092784, 1.186438, 0.021768, 0.042360, 0.033589, 9.804134, 0.200558, 0.235282
19.200000, 0.038647, 0.032445, 9.806177, -0.003844, 0.000160, 0.007029, 0.225383, 0.221821, 0.221821, 95.029074, 0.799929, -9.448704, -0.113572, -0.092758, 1.190698, 0.021990, 0.037572, 0.031196, 9.807724, 0.189566, 0.225806
19.250000, 0.038720, 0.033132, 9.807105, -0.006288, 0.000771, 0.009015, 0.219667, 0.221340, 0.221340, 96.682661, 0.805079, -9.515099, -0.114806, -0.092828, 1.194954, 0.022160, 0.038769, 0.033589, 9.807724, 0.193561, 0.226212
19.300000, 0.041622, 0.033406, 9.803886, -0.008884, 0.002603, 0.007029, 0.207544, 0.227036, 0.227036, 93.257222, 0.810252, -9.581835, -0.116066, -0.093038, 1.199419, 0.022509, 0.043556, 0.033589, 9.801740, 0.195230, 0.243244
19.350000, 0.038474, 0.033516, 9.801880, -0.009189, 0.000618, 0.005655, 0.195530, 0.225723, 0.225723, 95.950189, 0.815440, -9.648727, -0.117353, -0.093355, 1.203684, 0.022969, 0.036375, 0.033589, 9.800543, 0.195913, 0.224893
19.400000, 0.039369, 0.033560, 9.801078, -0.007051, -0.000909, 0.005502, 0.190102, 0.220849, 0.220849, 96.830186, 0.820644, -9.715777, -0.118667, -0.093731, 1.207942, 0.023473, 0.039966, 0.033589, 9.800543, 0.196186, 0.230144
19.450000, 0.037573, 0.033578, 9.801475, -0.011938, 0.006879, 0.010389, 0.172148, 0.236230, 0.236230, 92.433201, 0.825899, -9.783270, -0.120012, -0.094277, 1.212248, 0.023957, 0.036375, 0.033589, 9.801740, 0.196281, 0.219635
19.500000, 0.036136, 0.035021, 9.801634, -0.000332, 0.000160, 0.005808, 0.187001, 0.231974, 0.231974, 98.306804, 0.831174, -9.850932, -0.121382, -0.094761, 1.216434, 0.024430, 0.035179, 0.035983, 9.801740, 0.204714, 0.211234
19.550000, 0.038434, 0.036316, 9.803134, -0.004608, -0.000604, 0.005655, 0.190024, 0.226951, 0.226951, 97.066730, 0.836485, -9.918886, -0.122772, -0.095304, 1.220698, 0.024821, 0.039966, 0.037180, 9.804134, 0.212253, 0.224631
19.600000, 0.036481, 0.036834, 9.803016, -0.008273, 0.001534, 0.005808, 0.183394, 0.227113, 0.227113, 94.556358, 0.841833, -9.987058, -0.124184, -0.095932, 1.224848, 0.025218, 0.035179, 0.037180, 9.802937, 0.215284, 0.213217
19.650000, 0.037854, 0.037042, 9.802250, -0.002011, 0.001229, 0.005044, 0.194042, 0.227013, 0.227013, 95.169166, 0.847198, -10.055338, -0.125619, -0.096475, 1.229072, 0.025656, 0.038769, 0.037180, 9.801740, 0.216512, 0.221259
19.700000, 0.037685, 0.036407, 9.802662, -0.003997, -0.000604, 0.005502, 0.198420, 0.221971, 0.221971, 93.027937, 0.852597, -10.123974, -0.127079, -0.096932, 1.233253, 0.026072, 0.037572, 0.035983, 9.802937, 0.212791, 0.220263
19.750000, 0.038335, 0.034716, 9.802109, -0.007662, 0.002909, 0.005655, 0.192060, 0.226896, 0.226896, 93.773938, 0.858005, -10.192694, -0.128562, -0.097353, 1.237510, 0.026519, 0.038769, 0.033589, 9.801740, 0.202923, 0.224078
19.800000, 0.037159, 0.035476, 9.805478, -0.006746, 0.001534, 0.001837, 0.188962, 0.227284, 0.227284, 97.744711, 0.863446, -10.261685, -0.130055, -0.097846, 1.241704, 0.026779, 0.036375, 0.035983, 9.807724, 0.207295, 0.217129
19.850000, 0.038843, 0.035062, 9.804671, -0.001706, 0.001076, 0.007946, 0.199328, 0.227134, 0.227134, 96.142052, 0.868907, -10.330934, -0.131566, -0.098232, 1.245998, 0.027084, 0.039966, 0.034786, 9.804134, 0.204892, 0.226987
19.900000, 0.038799, 0.033460, 9.802913, -0.004608, 0.002145, 0.005044, 0.200550, 0.229813, 0.229813, 100.236880, 0.874385, -10.400455, -0.133103, -0.098538, 1.250324, 0.027487, 0.038769, 0.032393, 9.801740, 0.195567, 0.226768
19.950000, 0.038063, 0.033538, 9.802927, -0.002317, 0.004741, 0.005808, 0.207773, 0.238845, 0.238845, 94.727988, 0.879874, -10.470199, -0.134661, -0.098789, 1.254698, 0.027890, 0.037572, 0.033589, 9.802937, 0.196019, 0.222466
20.000000, 0.039923, 0.034287, 9.802933, -0.004913, -0.001826, 0.004891, 0.207868, 0.230558, 0.230558, 99.872087, 0.886090, -10.549202, -0.136450, -0.099141, 1.259654, 0.028344, 0.041163, 0.034786, 9.802937, 0.200396, 0.233337
20.050000, 0.039231, 0.035305, 9.802217, -0.009342, 0.000007, 0.006571, 0.196636, 0.227454, 0.227454, 98.624374, 0.894588, -10.656806, -0.138938, -0.099883, 1.266237, 0.029018, 0.038769, 0.035983, 9.801740, 0.206359, 0.229307
20.100000, 0.039672, 0.034994, 9.805521, -0.000790, 0.001229, 0.005044, 0.208803, 0.228013, 0.228013, 93.645496, 0.900174, -10.727608, -0.140574, -0.100239, 1.270600, 0.029276, 0.039966, 0.034786, 9.807724, 0.204473, 0.231808
20.150000, 0.039130, 0.035587, 9.805407, -0.001553, 0.002603, 0.005349, 0.218285, 0.231949, 0.231949, 97.216107, 0.905768, -10.798556, -0.142222, -0.100545, 1.274970, 0.029541, 0.038769, 0.035983, 9.805330, 0.207944, 0.228646
20.200000, 0.040350, 0.033670, 9.802489, -0.007509, 0.001229, 0.007182, 0.210408, 0.232475, 0.232475, 98.615648, 0.911384, -10.869839, -0.143901, -0.100839, 1.279418, 0.029969, 0.041163, 0.032393, 9.800543, 0.196802, 0.235842
20.250000, 0.036529, 0.036494, 9.802758, -0.005677, -0.000451, 0.009931, 0.209169, 0.226852, 0.226852, 95.276202, 0.917015, -10.941168, -0.145598, -0.101278, 1.283575, 0.030380, 0.033982, 0.038377, 9.802937, 0.213301, 0.213505
20.300000, 0.037873, 0.036188, 9.802865, -0.001248, -0.002742, 0.003822, 0.219641, 0.216122, 0.216122, 97.919457, 0.922681, -11.012976, -0.147323, -0.101608, 1.287730, 0.030785, 0.038769, 0.035983, 9.802937, 0.211506, 0.221358
20.350000, 0.039847, 0.034629, 9.802908, -0.007662, 0.000312, 0.005349, 0.211625, 0.215166, 0.215166, 95.896293, 0.928345, -11.084751, -0.149064, -0.101939, 1.291970, 0.031187, 0.041163, 0.033589, 9.802937, 0.202394, 0.232893
20.400000, 0.042073, 0.034723, 9.803643, -0.007051, 0.000465, 0.006724, 0.205839, 0.215705, 0.215705, 95.389312, 0.934039, -11.156865, -0.150826, -0.102342, 1.296338, 0.031549, 0.043556, 0.034786, 9.804134, 0.202931, 0.245883
20.450000, 0.037218, 0.036197, 9.804656, -0.006593, -0.001215, 0.006266, 0.202332, 0.209720, 0.209720, 95.546764, 0.939768, -11.229249, -0.152605, -0.102827, 1.300373, 0.031854, 0.033982, 0.037180, 9.805330, 0.211524, 0.217490
20.500000, 0.038149, 0.037505, 9.804342, -0.009342, 0.000465, 0.006571, 0.192396, 0.209064, 0.209064, 96.374460, 0.945532, -11.301798, -0.154400, -0.103483, 1.304433, 0.032176, 0.038769, 0.038377, 9.804134, 0.219173, 0.222935
20.550000, 0.039239, 0.034438, 9.804935, -0.003844, 0.005199, 0.006571, 0.196516, 0.221522, 0.221522, 95.969023, 0.951322, -11.374643, -0.156213, -0.103949, 1.308695, 0.032466, 0.039966, 0.032393, 9.805330, 0.201236, 0.229293
20.600000, 0.039675, 0.033929, 9.806609, -0.007051, 0.001992, 0.007182, 0.191615, 0.224758, 0.224758, 93.491171, 0.957127, -11.447583, -0.158030, -0.104429, 1.313003, 0.032664, 0.039966, 0.033589, 9.807724, 0.198228, 0.231802
20.650000, 0.038413, 0.035161, 9.805124, -0.009036, 0.002298, 0.005502, 0.182375, 0.228035, 0.228035, 95.819966, 0.962976, -11.520813, -0.159866, -0.105057, 1.317260, 0.032944, 0.037572, 0.035983, 9.804134, 0.205461, 0.224465
20.700000, 0.039345, 0.036372, 9.804530, -0.003233, 0.004283, 0.007029, 0.189804, 0.236728, 0.236728, 95.110418, 0.968857, -11.594259, -0.161720, -0.105691, 1.321650, 0.033257, 0.039966, 0.037180, 9.804134, 0.212551, 0.229921
20.750000, 0.038281, 0.035421, 9.805728, -0.006746, 0.000312, 0.004128, 0.187017, 0.233761, 0.233761, 99.191014, 0.974767, -11.667892, -0.163584, -0.106299, 1.325952, 0.033504, 0.037572, 0.034786, 9.806527, 0.206964, 0.223679
20.800000, 0.040010, 0.034322, 9.803335, -0.005524, 0.000312, 0.005655, 0.187259, 0.231744, 0.231744, 98.387996, 0.980707, -11.741764, -0.165473, -0.106863, 1.330334, 0.033883, 0.041163, 0.033589, 9.801740, 0.200593, 0.233838
20.850000, 0.041420, 0.033882, 9.801660, -0.002928, 0.001687, 0.003822, 0.194215, 0.234145, 0.234145, 96.952957, 0.986666, -11.815808, -0.167389, -0.107355, 1.334819, 0.034356, 0.042360, 0.033589, 9.800543, 0.198058, 0.242117
20.900000, 0.039829, 0.035143, 9.799554, -0.000179, -0.001062, 0.005349, 0.208504, 0.228412, 0.228412, 95.194429, 0.992643, -11.890070, -0.169340, -0.107767, 1.339168, 0.034944, 0.038769, 0.035983, 9.798150, 0.205470, 0.232871
20.950000, 0.042066, 0.032057, 9.798711, -0.001859, 0.001840, 0.003822, 0.215920, 0.231789, 0.231789, 97.848454, 0.998632, -11.964668, -0.171329, -0.107960, 1.343700, 0.035580, 0.043556, 0.029999, 9.798150, 0.187441, 0.245966
21.000000, 0.042242, 0.032976, 9.798374, -0.007815, 0.001381, 0.005655, 0.207313, 0.233817, 0.233817, 98.905555, 1.004644, -12.039514, -0.173355, -0.108300, 1.348246, 0.036236, 0.042360, 0.033589, 9.798150, 0.192826, 0.247006
21.050000, 0.040876, 0.033344, 9.799676, -0.005524, -0.000757, 0.006418, 0.205538, 0.229467, 0.229467, 95.527540, 1.010695, -12.114842, -0.175419, -0.108666, 1.352687, 0.036820, 0.039966, 0.033589, 9.800543, 0.194951, 0.238989
21.100000, 0.042484, 0.032773, 9.800196, -0.003081, 0.003519, 0.006418, 0.210092, 0.237505, 0.237505, 96.576114, 1.016758, -12.190371, -0.177511, -0.108977, 1.357297, 0.037376, 0.043556, 0.032393, 9.800543, 0.191603, 0.248377
21.150000, 0.043128, 0.033263, 9.799686, -0.005524, 0.001381, 0.005960, 0.207990, 0.239588, 0.239588, 95.915562, 1.022828, -12.265985, -0.179631, -0.109338, 1.361946, 0.037959, 0.043556, 0.033589, 9.799346, 0.194476, 0.252151
21.200000, 0.041231, 0.033459, 9.798046, -0.002622, -0.000909, 0.003822, 0.213786, 0.234655, 0.234655, 96.181741, 1.028914, -12.341862, -0.181791, -0.109638, 1.366450, 0.038633, 0.039966, 0.033589, 9.796953, 0.195654, 0.241100
21.250000, 0.037599, 0.032101, 9.799544, -0.002775, 0.002298, 0.005655, 0.218099, 0.237024, 0.237024, 95.784257, 1.035006, -12.417971, -0.183982, -0.109802, 1.370788, 0.039223, 0.035179, 0.031196, 9.800543, 0.187686, 0.219833
21.300000, 0.036865, 0.032276, 9.796553, -0.005677, 0.001992, 0.006877, 0.214390, 0.238043, 0.238043, 91.353192, 1.041151, -12.494858, -0.186235, -0.109992, 1.375121, 0.039984, 0.036375, 0.032393, 9.794559, 0.188766, 0.215606
21.350000, 0.036571, 0.033064, 9.798229, -0.002317, 0.001687, 0.008098, 0.220132, 0.237980, 0.237980, 92.840021, 1.047268, -12.571525, -0.188509, -0.110151, 1.379413, 0.040647, 0.036375, 0.033589, 9.799346, 0.193342, 0.213851
21.400000, 0.036454, 0.034815, 9.801772, -0.008120, 0.007032, 0.008404, 0.210742, 0.251966, 0.251966, 96.340192, 1.053403, -12.648345, -0.190801, -0.110500, 1.383809, 0.041114, 0.036375, 0.035983, 9.804134, 0.203510, 0.213087
21.450000, 0.039279, 0.038388, 9.803189, -0.005219, -0.002742, 0.007946, 0.211278, 0.240114, 0.240114, 96.611252, 1.059567, -12.725340, -0.193110, -0.111045, 1.388227, 0.041501, 0.041163, 0.040770, 9.804134, 0.224362, 0.229568
21.500000, 0.036819, 0.034073, 9.803756, -0.003386, -0.000298, 0.003517, 0.214789, 0.234520, 0.234520, 96.065887, 1.065743, -12.802645, -0.195440, -0.111301, 1.392488, 0.041857, 0.035179, 0.031196, 9.804134, 0.199129, 0.215177
21.550000, 0.037271, 0.034501, 9.806137, 0.001654, 0.000465, 0.006418, 0.231537, 0.231505, 0.231505, 101.073419, 1.071941, -12.880398, -0.197785, -0.111438, 1.396769, 0.042081, 0.037572, 0.034786, 9.807724, 0.201581, 0.217766
21.600000, 0.038170, 0.031800, 9.801344, -0.001553, -0.003658, 0.007029, 0.237277, 0.218143, 0.218143, 98.173574, 1.078126, -12.958332, -0.200163, -0.111379, 1.400989, 0.042571, 0.038769, 0.029999, 9.798150, 0.185890, 0.223127
21.650000, 0.039248, 0.032155, 9.800864, -0.003997, 0.002298, 0.004586, 0.236119, 0.222052, 0.222052, 99.436148, 1.084304, -13.036406, -0.202567, -0.111375, 1.405298, 0.043088, 0.039966, 0.032393, 9.800543, 0.187978, 0.229438
21.700000, 0.039679, 0.033016, 9.802826, -0.007967, 0.001840, 0.006418, 0.224753, 0.224661, 0.224661, 96.625066, 1.090490, -13.114651, -0.204989, -0.111537, 1.409635, 0.043495, 0.039966, 0.033589, 9.804134, 0.192969, 0.231912
21.750000, 0.038415, 0.034078, 9.802892, -0.007509, 0.003825, 0.003517, 0.215821, 0.231809, 0.231809, 95.110418, 1.096728, -13.193531, -0.207446, -0.111840, 1.413976, 0.043901, 0.037572, 0.034786, 9.802937, 0.199177, 0.224524
21.800000, 0.038627, 0.034503, 9.801483, -0.003691, -0.002436, 0.005655, 0.217816, 0.221899, 0.221899, 99.922617, 1.102951, -13.272236, -0.209919, -0.112149, 1.418211, 0.044382, 0.038769, 0.034786, 9.800543, 0.201689, 0.225799
21.850000, 0.039431, 0.031801, 9.802355, -0.005829, 0.001381, 0.005349, 0.212768, 0.223208, 0.223208, 101.023456, 1.109182, -13.351151, -0.212413, -0.112382, 1.422512, 0.044815, 0.039966, 0.029999, 9.802937, 0.185876, 0.230473
21.900000, 0.039034, 0.032156, 9.804858, -0.008426, -0.001215, 0.006571, 0.201287, 0.217381, 0.217381, 96.307858, 1.115437, -13.430288, -0.214919, -0.112740, 1.426721, 0.045109, 0.038769, 0.032393, 9.806527, 0.187904, 0.228095
21.950000, 0.036003, 0.033734, 9.805142, -0.008426, 0.000312, 0.005960, 0.191311, 0.214747, 0.214747, 96.486822, 1.121741, -13.509853, -0.217448, -0.113259, 1.430728, 0.045387, 0.033982, 0.034786, 9.805330, 0.197121, 0.210377
22.000000, 0.035508, 0.032929, 9.805973, -0.005219, 0.000465, 0.005044, 0.190247, 0.212485, 0.212485, 100.401513, 1.128066, -13.589569, -0.219985, -0.113750, 1.434686, 0.045618, 0.035179, 0.032393, 9.806527, 0.192402, 0.207471
22.050000, 0.038183, 0.035480, 9.805587, -0.002622, 0.008406, 0.005502, 0.197262, 0.232597, 0.232597, 96.412672, 1.134431, -13.669565, -0.222539, -0.114359, 1.438973, 0.045873, 0.039966, 0.037180, 9.805330, 0.207311, 0.223107
22.100000, 0.037098, 0.034346, 9.803997, -0.002011, -0.000146, 0.004586, 0.204911, 0.228039, 0.228039, 94.802190, 1.140819, -13.749823, -0.225115, -0.114814, 1.443175, 0.046215, 0.036375, 0.033589, 9.802937, 0.200717, 0.216805
22.150000, 0.035947, 0.032456, 9.804079, -0.006135, 0.002909, 0.008862, 0.200223, 0.231383, 0.231383, 96.771228, 1.147217, -13.830174, -0.227705, -0.115204, 1.447346, 0.046553, 0.035179, 0.031196, 9.804134, 0.189672, 0.210072
22.200000, 0.036922, 0.033854, 9.804830, -0.006440, 0.001381, 0.007487, 0.195652, 0.230792, 0.230792, 96.551484, 1.153652, -13.910832, -0.230313, -0.115718, 1.451555, 0.046849, 0.037572, 0.034786, 9.805330, 0.197828, 0.215756
22.250000, 0.037312, 0.035131, 9.803694, -0.003539, 0.003367, 0.003670, 0.199679, 0.235637, 0.235637, 98.130102, 1.160141, -13.992009, -0.232951, -0.116276, 1.455841, 0.047210, 0.037572, 0.035983, 9.802937, 0.205317, 0.218061
22.300000, 0.037468, 0.033488, 9.804676, -0.006440, 0.000465, 0.007793, 0.195012, 0.232443, 0.232443, 96.906407, 1.166656, -14.073399, -0.235604, -0.116787, 1.460110, 0.047516, 0.037572, 0.032393, 9.805330, 0.195693, 0.218952
22.350000, 0.034658, 0.032113, 9.802914, -0.003233, -0.001826, 0.004891, 0.198601, 0.222154, 0.222154, 99.973661, 1.173160, -14.154656, -0.238271, -0.117166, 1.464121, 0.047918, 0.032785, 0.031196, 9.801740, 0.187690, 0.202568
22.400000, 0.035689, 0.034435, 9.804364, -0.011022, 0.003672, 0.008404, 0.182251, 0.227598, 0.227598, 99.804147, 1.179708, -14.236102, -0.240952, -0.117853, 1.468202, 0.048239, 0.036375, 0.035983, 9.805330, 0.201232, 0.208559
22.450000, 0.036101, 0.038236, 9.804226, 0.000737, -0.003505, 0.003822, 0.200008, 0.213731, 0.213731, 96.952957, 1.186297, -14.317777, -0.243652, -0.118572, 1.472170, 0.048566, 0.036375, 0.040770, 9.804134, 0.223449, 0.210970
22.500000, 0.036984, 0.034730, 9.803452, -0.005829, 0.000007, 0.006877, 0.197572, 0.210589, 0.210589, 98.306804, 1.192932, -14.399913, -0.246382, -0.119131, 1.476189, 0.048937, 0.037572, 0.032393, 9.802937, 0.202976, 0.216147
22.550000, 0.038055, 0.033328, 9.803143, -0.003691, 0.002909, 0.008098, 0.200390, 0.215857, 0.215857, 92.885145, 1.199592, -14.482317, -0.249135, -0.119587, 1.480333, 0.049327, 0.038769, 0.032393, 9.802937, 0.194785, 0.222415
22.600000, 0.039202, 0.032767, 9.806610, -0.007357, 0.000618, 0.009320, 0.193016, 0.215172, 0.215172, 95.324528, 1.206265, -14.564760, -0.251887, -0.120076, 1.484521, 0.049524, 0.039966, 0.032393, 9.808921, 0.191439, 0.229035
22.650000, 0.038942, 0.031824, 9.805842, -0.005371, 0.005047, 0.004128, 0.191041, 0.226207, 0.226207, 93.918249, 1.212967, -14.647511, -0.254655, -0.120527, 1.488807, 0.049765, 0.038769, 0.031196, 9.805330, 0.185947, 0.227537
22.700000, 0.040993, 0.032165, 9.804817, -0.004150, 0.000007, 0.005349, 0.192588, 0.223958, 0.223958, 92.278471, 1.219685, -14.730400, -0.257439, -0.120970, 1.493182, 0.050062, 0.042360, 0.032393, 9.804134, 0.187960, 0.239543
22.750000, 0.039659, 0.033738, 9.805843, -0.009800, -0.000909, 0.007946, 0.179709, 0.218909, 0.218909, 92.353297, 1.226444, -14.813550, -0.260234, -0.121583, 1.497417, 0.050302, 0.038769, 0.034786, 9.806527, 0.197129, 0.231723
22.800000, 0.039843, 0.034367, 9.803381, -0.005524, 0.000312, 0.008251, 0.179455, 0.217598, 0.217598, 94.469557, 1.233228, -14.896811, -0.263051, -0.122217, 1.501642, 0.050677, 0.039966, 0.034786, 9.801740, 0.200855, 0.232859
22.850000, 0.037762, 0.033182, 9.801678, -0.003386, 0.004130, 0.004586, 0.184437, 0.225646, 0.225646, 93.983526, 1.240046, -14.980415, -0.265900, -0.122719, 1.505847, 0.051148, 0.036375, 0.032393, 9.800543, 0.193965, 0.220738
22.900000, 0.037648, 0.034863, 9.803152, -0.007967, 0.000007, 0.005197, 0.177658, 0.222096, 0.222096, 93.058698, 1.246905, -15.064275, -0.268769, -0.123356, 1.510002, 0.051537, 0.037572, 0.035983, 9.804134, 0.203758, 0.220038
22.950000, 0.037603, 0.034099, 9.799432, -0.009495, 0.004283, 0.007182, 0.167084, 0.230128, 0.230128, 93.586054, 1.253795, -15.148270, -0.271673, -0.124042, 1.514220, 0.052132, 0.037572, 0.033589, 9.796953, 0.199368, 0.219855
23.000000, 0.036148, 0.033075, 9.798663, -0.006440, 0.002909, 0.006418, 0.165044, 0.233254, 0.233254, 94.696472, 1.260721, -15.232518, -0.274614, -0.124675, 1.518394, 0.052770, 0.035179, 0.032393, 9.798150, 0.193398, 0.211368
23.050000, 0.037003, 0.034102, 9.796919, -0.004150, 0.004741, 0.006724, 0.169762, 0.241318, 0.241318, 92.568274, 1.268494, -15.326831, -0.277953, -0.125389, 1.523190, 0.053590, 0.037572, 0.034786, 9.795756, 0.199437, 0.216402
23.100000, 0.036626, 0.033794, 9.799093, -0.009647, 0.000160, 0.009167, 0.159500, 0.236395, 0.236395, 94.854567, 1.275514, -15.411740, -0.280979, -0.126094, 1.527425, 0.054205, 0.036375, 0.033589, 9.800543, 0.197595, 0.214154
23.150000, 0.037912, 0.034390, 9.799245, -0.003386, 0.001076, 0.004891, 0.166973, 0.234765, 0.234765, 93.603289, 1.282579, -15.497016, -0.284043, -0.126754, 1.531726, 0.054813, 0.038769, 0.034786, 9.799346, 0.201072, 0.221668
23.200000, 0.038426, 0.034628, 9.800024, -0.003539, 0.001534, 0.006571, 0.173685, 0.234655, 0.234655, 93.106027, 1.289658, -15.582327, -0.287130, -0.127351, 1.536051, 0.055376, 0.038769, 0.034786, 9.800543, 0.202447, 0.224656
23.250000, 0.039350, 0.035441, 9.796745, -0.004150, 0.002450, 0.008098, 0.178719, 0.237363, 0.237363, 94.136384, 1.296763, -15.667800, -0.290260, -0.127940, 1.540449, 0.056121, 0.039966, 0.035983, 9.794559, 0.207272, 0.230134
23.300000, 0.039720, 0.035766, 9.795433, -0.003386, 0.002756, 0.006418, 0.185629, 0.240821, 0.240821, 93.528516, 1.303898, -15.753536, -0.293438, -0.128474, 1.544905, 0.056938, 0.039966, 0.035983, 9.794559, 0.209202, 0.232326
23.350000, 0.039867, 0.032306, 9.794191, -0.005677, 0.001229, 0.007335, 0.184511, 0.240015, 0.240015, 94.220284, 1.311044, -15.839502, -0.296666, -0.128819, 1.549374, 0.057825, 0.039966, 0.029999, 9.793362, 0.188986, 0.233221
23.400000, 0.037054, 0.036666, 9.795848, -0.003386, 0.002909, 0.007487, 0.191461, 0.242473, 0.242473, 94.556358, 1.318234, -15.925830, -0.299941, -0.129325, 1.553706, 0.058620, 0.035179, 0.039574, 9.796953, 0.214459, 0.216727
23.450000, 0.037365, 0.036256, 9.795793, -0.008578, 0.000160, 0.004739, 0.184016, 0.237521, 0.237521, 93.566667, 1.325448, -16.012314, -0.303257, -0.129868, 1.558003, 0.059418, 0.037572, 0.035983, 9.795756, 0.212062, 0.218546
23.500000, 0.037489, 0.034656, 9.800079, -0.010258, 0.003825, 0.007182, 0.172048, 0.242648, 0.242648, 94.445688, 1.332704, -16.099154, -0.306602, -0.130433, 1.562360, 0.059979, 0.037572, 0.033589, 9.802937, 0.202614, 0.219178
23.550000, 0.038257, 0.034734, 9.798203, -0.002775, 0.002298, 0.005349, 0.180937, 0.243614, 0.243614, 90.725224, 1.339988, -16.186311, -0.309989, -0.130904, 1.566780, 0.060645, 0.038769, 0.034786, 9.796953, 0.203109, 0.223710
23.600000, 0.041437, 0.036202, 9.802480, -0.008426, 0.002145, 0.009320, 0.174879, 0.245424, 0.245424, 92.315280, 1.347319, -16.273832, -0.313397, -0.131508, 1.571393, 0.061074, 0.043556, 0.037180, 9.805330, 0.211597, 0.242196
23.650000, 0.039118, 0.033916, 9.804190, -0.008426, 0.006726, 0.009625, 0.168381, 0.258222, 0.258222, 92.882963, 1.354652, -16.361318, -0.316811, -0.132033, 1.575989, 0.061408, 0.037572, 0.032393, 9.805330, 0.198204, 0.228604
23.700000, 0.040345, 0.033002, 9.801284, -0.003997, 0.004741, 0.005655, 0.173800, 0.265257, 0.265257, 89.845564, 1.362021, -16.449265, -0.320263, -0.132439, 1.580738, 0.061906, 0.041163, 0.032393, 9.799346, 0.192919, 0.235843
23.750000, 0.040118, 0.036227, 9.797249, -0.002317, 0.004283, 0.004128, 0.184737, 0.270377, 0.270377, 97.032455, 1.369414, -16.537418, -0.323760, -0.132923, 1.585514, 0.062626, 0.039966, 0.038377, 9.794559, 0.211857, 0.234610
23.800000, 0.041463, 0.038235, 9.799944, -0.007204, 0.003367, 0.006877, 0.182851, 0.273163, 0.273163, 96.244165, 1.376838, -16.625763, -0.327281, -0.133546, 1.590380, 0.063197, 0.042360, 0.039574, 9.801740, 0.223539, 0.242410
23.850000, 0.041283, 0.037602, 9.796713, -0.004760, 0.001687, 0.006418, 0.187430, 0.271127, 0.271127, 92.712734, 1.384285, -16.714323, -0.330847, -0.134085, 1.595218, 0.063947, 0.041163, 0.037180, 9.794559, 0.219910, 0.241438
23.900000, 0.041211, 0.035913, 9.796857, -0.008120, -0.001673, 0.007029, 0.182118, 0.260218, 0.260218, 96.541346, 1.391757, -16.803114, -0.334452, -0.134581, 1.599949, 0.064688, 0.041163, 0.034786, 9.796953, 0.210027, 0.241013
23.950000, 0.037591, 0.037391, 9.796914, -0.004608, -0.000757, 0.008404, 0.187239, 0.250918, 0.250918, 95.788293, 1.399254, -16.892097, -0.338096, -0.135104, 1.604387, 0.065423, 0.035179, 0.038377, 9.796953, 0.218673, 0.219846
24.000000, 0.037580, 0.037264, 9.799092, -0.005677, 0.000771, 0.004891, 0.189176, 0.246262, 0.246262, 92.340487, 1.406784, -16.981390, -0.341773, -0.135594, 1.608785, 0.066037, 0.037572, 0.037180, 9.800543, 0.217884, 0.219729
24.050000, 0.039730, 0.035777, 9.799244, -0.000026, 0.003367, 0.004433, 0.205384, 0.249696, 0.249696, 96.444114, 1.414347, -17.071249, -0.345497, -0.135862, 1.613362, 0.066647, 0.041163, 0.034786, 9.799346, 0.209187, 0.232295
24.100000, 0.039153, 0.034465, 9.798587, -0.001401, 0.000923, 0.003670, 0.216178, 0.246096, 0.246096, 94.824272, 1.421972, -17.162083, -0.349288, -0.135954, 1.617918, 0.067298, 0.038769, 0.033589, 9.798150, 0.201525, 0.228941
24.150000, 0.040359, 0.033221, 9.799043, -0.008426, -0.000909, 0.007029, 0.206958, 0.238381, 0.238381, 94.032457, 1.429554, -17.252585, -0.353089, -0.136064, 1.622438, 0.067919, 0.041163, 0.032393, 9.799346, 0.194246, 0.235980
24.200000, 0.038687, 0.031288, 9.800661, -0.010564, 0.001076, 0.007640, 0.191876, 0.235766, 0.235766, 95.271716, 1.437110, -17.342909, -0.356898, -0.136207, 1.626817, 0.068448, 0.037572, 0.029999, 9.801740, 0.182911, 0.226166
24.250000, 0.035146, 0.031951, 9.799872, -0.008731, 0.002298, 0.008404, 0.183041, 0.235015, 0.235015, 96.047537, 1.444680, -17.433402, -0.360739, -0.136467, 1.630984, 0.069018, 0.032785, 0.032393, 9.799346, 0.186801, 0.205481
24.300000, 0.036602, 0.034370, 9.802429, -0.010411, 0.001381, 0.007793, 0.171472, 0.232436, 0.232436, 94.464918, 1.452299, -17.524303, -0.364606, -0.136977, 1.635202, 0.069448, 0.037572, 0.035983, 9.804134, 0.200893, 0.213937
24.350000, 0.037184, 0.035338, 9.804170, -0.010258, 0.001229, 0.006266, 0.161676, 0.229842, 0.229842, 95.983658, 1.459943, -17.615255, -0.368482, -0.137639, 1.639411, 0.069781, 0.037572, 0.035983, 9.805330, 0.206513, 0.217302
24.400000, 0.038853, 0.032135, 9.804866, -0.004302, -0.000757, 0.006571, 0.167132, 0.222868, 0.222868, 93.566667, 1.467605, -17.706437, -0.372372, -0.138073, 1.643659, 0.070075, 0.039966, 0.029999, 9.805330, 0.187780, 0.227040
24.450000, 0.037367, 0.032289, 9.805863, -0.000942, -0.000298, 0.004586, 0.181215, 0.216992, 0.216992, 93.454608, 1.475284, -17.797899, -0.376277, -0.138372, 1.647779, 0.070313, 0.036375, 0.032393, 9.806527, 0.188665, 0.218331
24.500000, 0.038208, 0.033069, 9.806261, -0.003081, -0.000146, 0.006418, 0.188940, 0.212328, 0.212328, 93.918249, 1.482985, -17.889686, -0.380197, -0.138637, 1.651908, 0.070529, 0.038769, 0.033589, 9.806527, 0.193215, 0.223239
24.550000, 0.037109, 0.036254, 9.802830, -0.008120, 0.001992, 0.007029, 0.184133, 0.213238, 0.213238, 94.469557, 1.490723, -17.981741, -0.384147, -0.139123, 1.655974, 0.070935, 0.036375, 0.038377, 9.800543, 0.211894, 0.216890
24.600000, 0.038105, 0.033937, 9.799304, -0.004302, -0.000146, 0.005502, 0.188882, 0.208863, 0.208863, 94.352703, 1.498478, -18.074079, -0.388138, -0.139436, 1.660064, 0.071537, 0.038769, 0.032393, 9.796953, 0.198425, 0.222794
24.650000, 0.039222, 0.033010, 9.800047, -0.011022, 0.004741, 0.005349, 0.175085, 0.218296, 0.218296, 94.899092, 1.506284, -18.166972, -0.392172, -0.139840, 1.664316, 0.072101, 0.039966, 0.032393, 9.800543, 0.192992, 0.229305
24.700000, 0.037514, 0.030485, 9.802499, -0.008884, 0.001229, 0.007640, 0.166933, 0.216997, 0.216997, 94.053554, 1.514076, -18.259718, -0.396211, -0.140175, 1.668448, 0.072526, 0.036375, 0.028802, 9.804134, 0.178186, 0.219267
24.750000, 0.041139, 0.033784, 9.804198, -0.010411, 0.000923, 0.004433, 0.156807, 0.216568, 0.216568, 89.202060, 1.521891, -18.352500, -0.400256, -0.140779, 1.672754, 0.072857, 0.043556, 0.035983, 9.805330, 0.197432, 0.240416
24.800000, 0.040435, 0.034385, 9.804159, -0.005524, 0.002298, 0.008862, 0.160772, 0.219578, 0.219578, 92.528301, 1.529742, -18.445559, -0.404321, -0.141368, 1.677054, 0.073190, 0.039966, 0.034786, 9.804134, 0.200947, 0.236302
24.850000, 0.038718, 0.034626, 9.802708, -0.008578, 0.001992, 0.005808, 0.156566, 0.220855, 0.220855, 91.047065, 1.537630, -18.538869, -0.408413, -0.141992, 1.681271, 0.073604, 0.037572, 0.034786, 9.801740, 0.202382, 0.226297
24.900000, 0.037312, 0.035440, 9.803563, -0.008273, -0.001520, 0.008709, 0.153970, 0.212127, 0.212127, 96.523733, 1.545561, -18.632435, -0.412524, -0.142683, 1.685325, 0.073969, 0.036375, 0.035983, 9.804134, 0.207124, 0.218065
24.950000, 0.040341, 0.033612, 9.801751, -0.004302, 0.000923, 0.007029, 0.161453, 0.211868, 0.211868, 95.937416, 1.553531, -18.726391, -0.416672, -0.143219, 1.689558, 0.074436, 0.042360, 0.032393, 9.800543, 0.196473, 0.235807
25.000000, 0.037243, 0.033598, 9.803899, -0.010411, 0.000923, 0.008709, 0.152276, 0.210343, 0.210343, 98.169132, 1.561527, -18.820438, -0.420829, -0.143849, 1.693593, 0.074782, 0.035179, 0.033589, 9.805330, 0.196353, 0.217655
25.050000, 0.037441, 0.035029, 9.804040, -0.009647, 0.002603, 0.008556, 0.146557, 0.213493, 0.213493, 96.748399, 1.569593, -18.914980, -0.425017, -0.144632, 1.697670, 0.075122, 0.037572, 0.035983, 9.804134, 0.204712, 0.218805
25.100000, 0.036802, 0.031293, 9.804814, -0.005524, -0.000146, 0.006571, 0.150736, 0.208856, 0.208856, 102.870385, 1.577658, -19.009427, -0.429206, -0.145194, 1.701663, 0.075418, 0.036375, 0.028802, 9.805330, 0.182863, 0.215053
25.150000, 0.037982, 0.034107, 9.802970, -0.008273, 0.001534, 0.009931, 0.148636, 0.209553, 0.209553, 98.002400, 1.585784, -19.104247, -0.433427, -0.145961, 1.705719, 0.075817, 0.038769, 0.035983, 9.801740, 0.199344, 0.221993
25.200000, 0.035582, 0.035233, 9.803668, -0.000942, 0.001534, 0.005349, 0.166764, 0.209188, 0.209188, 94.567648, 1.593940, -19.199248, -0.437665, -0.146619, 1.709644, 0.076176, 0.033982, 0.035983, 9.804134, 0.205909, 0.207950
25.250000, 0.039649, 0.035683, 9.805384, -0.004455, 0.001381, 0.006877, 0.174533, 0.210210, 0.210210, 93.776882, 1.602120, -19.294376, -0.441910, -0.147244, 1.713802, 0.076440, 0.042360, 0.035983, 9.806527, 0.208503, 0.231675
25.300000, 0.039839, 0.035863, 9.806070, -0.004608, -0.001062, 0.005502, 0.181494, 0.204822, 0.204822, 94.277316, 1.610328, -19.389700, -0.446165, -0.147809, 1.717922, 0.076665, 0.039966, 0.035983, 9.806527, 0.209541, 0.232772
25.350000, 0.038479, 0.033781, 9.804908, -0.003233, 0.001840, 0.005502, 0.190755, 0.207018, 0.207018, 96.033253, 1.618546, -19.485208, -0.450436, -0.148171, 1.722001, 0.076955, 0.037572, 0.032393, 9.804134, 0.197398, 0.224853
25.400000, 0.039371, 0.035820, 9.807316, -0.006135, 0.001229, 0.006266, 0.192537, 0.207867, 0.207867, 92.652132, 1.626802, -19.581058, -0.454717, -0.148628, 1.726136, 0.077112, 0.039966, 0.037180, 9.808921, 0.209265, 0.230009
25.450000, 0.039728, 0.035200, 9.807561, -0.007357, 0.001229, 0.006418, 0.190725, 0.208872, 0.208872, 93.528516, 1.635071, -19.677023, -0.459001, -0.149064, 1.730297, 0.077255, 0.039966, 0.034786, 9.807724, 0.205635, 0.232088
25.500000, 0.037716, 0.034952, 9.806941, -0.002928, 0.001687, 0.006266, 0.200725, 0.210208, 0.210208, 90.140087, 1.643388, -19.773605, -0.463313, -0.149368, 1.734385, 0.077434, 0.036375, 0.034786, 9.806527, 0.204198, 0.220351
25.550000, 0.036194, 0.033416, 9.805256, -0.003233, 0.005505, 0.004128, 0.208513, 0.220935, 0.220935, 91.298674, 1.651741, -19.870814, -0.467660, -0.149498, 1.738518, 0.077707, 0.035179, 0.032393, 9.804134, 0.195262, 0.211492
25.600000, 0.039175, 0.034956, 9.802428, -0.002317, 0.001076, 0.006266, 0.218787, 0.220397, 0.220397, 95.194429, 1.660061, -19.967803, -0.472015, -0.149622, 1.742791, 0.078137, 0.041163, 0.035983, 9.800543, 0.204319, 0.228979
25.650000, 0.038213, 0.034136, 9.804888, -0.010258, 0.004894, 0.006571, 0.206839, 0.229623, 0.229623, 95.002530, 1.668373, -20.064795, -0.476372, -0.149816, 1.747085, 0.078430, 0.037572, 0.033589, 9.806527, 0.199476, 0.223301
25.700000, 0.036393, 0.035244, 9.806590, -0.010716, 0.003672, 0.006877, 0.195025, 0.234108, 0.234108, 97.284024, 1.676713, -20.162039, -0.480738, -0.150189, 1.751310, 0.078628, 0.035179, 0.035983, 9.807724, 0.205915, 0.212624
25.750000, 0.037100, 0.034969, 9.803680, -0.006440, 0.003061, 0.005960, 0.195346, 0.236889, 0.236889, 99.582945, 1.685078, -20.259562, -0.485131, -0.150571, 1.755602, 0.078989, 0.037572, 0.034786, 9.801740, 0.204370, 0.216824
25.800000, 0.039538, 0.035578, 9.803952, -0.007815, 0.002145, 0.007335, 0.192289, 0.238038, 0.238038, 96.924491, 1.693481, -20.357451, -0.489547, -0.151043, 1.760038, 0.079335, 0.041163, 0.035983, 9.804134, 0.207919, 0.231062
25.850000, 0.038359, 0.034385, 9.803343, -0.002775, -0.000146, 0.005044, 0.202347, 0.232495, 0.232495, 97.483937, 1.701887, -20.455458, -0.493980, -0.151360, 1.764361, 0.079714, 0.037572, 0.033589, 9.802937, 0.200960, 0.224184
25.900000, 0.037887, 0.036780, 9.807408, -0.005219, 0.002756, 0.007029, 0.206211, 0.234822, 0.234822, 95.610551, 1.710309, -20.553575, -0.498410, -0.151781, 1.768668, 0.079867, 0.037572, 0.038377, 9.810118, 0.214869, 0.221335
25.950000, 0.037698, 0.038456, 9.806161, -0.008731, 0.001840, 0.004739, 0.201231, 0.234427, 0.234427, 95.038239, 1.718862, -20.653051, -0.502904, -0.152351, 1.772997, 0.080091, 0.037572, 0.039574, 9.805330, 0.224690, 0.220261
26.000000, 0.036905, 0.034818, 9.807817, -0.005677, 0.001687, 0.005197, 0.203200, 0.233267, 0.233267, 101.196588, 1.727371, -20.752079, -0.507373, -0.152714, 1.777258, 0.080222, 0.036375, 0.032393, 9.808921, 0.203399, 0.215588
26.050000, 0.038023, 0.035517, 9.805607, -0.003386, 0.001381, 0.007335, 0.211405, 0.231824, 0.231824, 95.575850, 1.735890, -20.851257, -0.511854, -0.153053, 1.781565, 0.080476, 0.038769, 0.035983, 9.804134, 0.207530, 0.222174
26.100000, 0.037035, 0.036515, 9.805441, -0.004302, 0.001992, 0.004891, 0.216992, 0.231649, 0.231649, 95.969023, 1.744421, -20.950579, -0.516347, -0.153396, 1.785811, 0.080738, 0.036375, 0.037180, 9.805330, 0.213363, 0.216400
26.150000, 0.039511, 0.036196, 9.806093, -0.008731, -0.000909, 0.005349, 0.210270, 0.224829, 0.224829, 94.700748, 1.752957, -21.049928, -0.520841, -0.153791, 1.790116, 0.080964, 0.041163, 0.035983, 9.806527, 0.211485, 0.230858
26.200000, 0.041220, 0.035350, 9.804199, -0.002775, 0.000923, 0.007182, 0.219478, 0.224142, 0.224142, 96.619530, 1.761508, -21.149556, -0.525358, -0.154066, 1.794521, 0.081295, 0.042360, 0.034786, 9.802937, 0.206583, 0.240889
26.250000, 0.039750, 0.035012, 9.802724, -0.007204, 0.000618, 0.006877, 0.216076, 0.222106, 0.222106, 98.735317, 1.770067, -21.249330, -0.529896, -0.154358, 1.798820, 0.081707, 0.038769, 0.034786, 9.801740, 0.204637, 0.232329
26.300000, 0.035571, 0.034876, 9.802852, -0.009495, 0.000771, 0.005808, 0.206761, 0.218835, 0.218835, 94.556358, 1.778647, -21.349313, -0.534456, -0.154710, 1.802849, 0.082111, 0.032785, 0.034786, 9.802937, 0.203844, 0.207903
26.350000, 0.037490, 0.032668, 9.804339, -0.003081, 0.001840, 0.005655, 0.214174, 0.219444, 0.219444, 95.582606, 1.787236, -21.449579, -0.539033, -0.154881, 1.807011, 0.082434, 0.038769, 0.031196, 9.805330, 0.190907, 0.219085
26.400000, 0.039694, 0.036811, 9.804216, -0.002470, 0.001687, 0.007793, 0.224391, 0.220562, 0.220562, 93.383729, 1.795852, -21.550160, -0.543633, -0.155190, 1.811295, 0.082764, 0.041163, 0.039574, 9.804134, 0.215123, 0.231966
26.450000, 0.037703, 0.035596, 9.804166, -0.008273, -0.001826, 0.004586, 0.217905, 0.211451, 0.211451, 93.910338, 1.804518, -21.651376, -0.548270, -0.155469, 1.815402, 0.083096, 0.036375, 0.034786, 9.804134, 0.208023, 0.220333
26.500000, 0.038343, 0.033674, 9.806301, -0.001095, 0.000465, 0.006877, 0.230063, 0.209392, 0.209392, 92.581880, 1.813164, -21.752632, -0.552907, -0.155515, 1.819537, 0.083310, 0.038769, 0.032393, 9.807724, 0.196747, 0.224024
26.550000, 0.037880, 0.032187, 9.805719, -0.008884, 0.003519, 0.004586, 0.219922, 0.215427, 0.215427, 93.514980, 1.821804, -21.854014, -0.557553, -0.155566, 1.823698, 0.083557, 0.037572, 0.031196, 9.805330, 0.188070, 0.221337
26.600000, 0.039132, 0.032310, 9.803331, -0.002928, 0.001381, 0.005808, 0.226293, 0.215910, 0.215910, 93.567439, 1.830450, -21.955735, -0.562230, -0.155561, 1.827942, 0.083937, 0.039966, 0.032393, 9.801740, 0.188837, 0.228704
