Time, AccX(g), AccY(g), AccZ(g), GyrX(rad/s), GyrY(rad/s), GyrZ(rad/s), Roll(deg), Pitch(deg), Yaw(deg), Heading, X, Y, Z, Vx, Vy, Vz, AccX, AccY, AccZ, RollAcc, PitchAcc
0.000000, 0.001648, -0.002507, 5.889014, 0.004555, 0.000923, 0.007335, -0.024293, 0.016015, 0.016015, 239.483783, 0.000000, 0.000000, 0.000000, 0.000000, 0.000000, 0.000000, 0.002747, -0.004179, 9.815023, -0.024396, 0.016035
0.050000, 0.000153, -0.001356, 8.246773, 0.000432, 0.006726, 0.008556, -0.015981, 0.017517, 0.017517, 238.953619, 0.000000, 0.000000, 0.000000, 0.000000, 0.000000, 0.000000, -0.000844, -0.000589, 9.818613, -0.009422, 0.001063
0.100000, -0.001881, -0.001614, 9.189877, 0.003334, 0.004588, 0.007029, -0.007580, 0.012741, 0.012741, 238.092765, 0.000000, 0.000000, 0.000000, 0.000000, 0.000000, 0.000000, -0.003237, -0.001785, 9.818613, -0.010061, -0.011728
0.150000, -0.000541, 0.000438, 9.567119, 0.007151, 0.005199, 0.006571, 0.009136, 0.013245, 0.013245, 236.738076, 0.000000, 0.000000, 0.000000, 0.000000, 0.000000, 0.000000, 0.000353, 0.001805, 9.818613, 0.002620, -0.003237
0.200000, -0.002877, 0.000540, 9.715143, 0.002723, 0.006879, 0.007029, 0.011283, 0.009894, 0.009894, 238.153087, 0.000000, 0.000000, 0.000000, 0.000000, 0.000000, 0.000000, -0.004434, 0.000608, 9.813826, 0.003184, -0.016966
0.250000, -0.001657, 0.001299, 9.778661, 0.003944, 0.008101, 0.008862, 0.015777, 0.010426, 0.010426, 238.562735, 0.000000, 0.000000, 0.000000, 0.000000, 0.000000, 0.000000, -0.000844, 0.001805, 9.821007, 0.007611, -0.009708
0.300000, -0.000451, -0.001270, 9.801196, 0.007457, 0.008559, 0.004891, 0.018917, 0.012800, 0.012800, 240.227111, 0.000000, 0.000000, 0.000000, 0.000000, 0.000000, 0.000000, 0.000353, -0.002982, 9.816220, -0.007423, -0.002636
0.350000, -0.004277, -0.000143, 9.811646, 0.008679, 0.008406, 0.008404, 0.024178, 0.005417, 0.005417, 237.919197, 0.000000, 0.000000, 0.000000, 0.000000, 0.000000, 0.000000, -0.006828, 0.000608, 9.818613, -0.000835, -0.024976
0.400000, -0.005089, 0.000308, 9.815826, 0.008068, 0.003825, 0.008251, 0.026441, -0.011002, -0.011002, 237.844973, 0.000000, 0.000000, 0.000000, 0.000000, 0.000000, 0.000000, -0.005631, 0.000608, 9.818613, 0.001796, -0.029707
0.450000, -0.001824, -0.001666, 9.817498, 0.004250, -0.000757, 0.008251, 0.016166, -0.025826, -0.025826, 238.385290, 0.000000, 0.000000, 0.000000, 0.000000, 0.000000, 0.000000, 0.000353, -0.002982, 9.818613, -0.009724, -0.010644
0.500000, -0.001236, -0.000302, 9.818167, 0.000585, 0.005505, 0.006113, 0.003312, -0.022282, -0.022282, 238.233834, 0.000000, 0.000000, 0.000000, 0.000000, 0.000000, 0.000000, -0.000844, 0.000608, 9.818613, -0.001760, -0.007211
0.550000, -0.004591, -0.000474, 9.819871, 0.003792, 0.006116, 0.008404, 0.000299, -0.023647, -0.023647, 237.207766, 0.000000, 0.000000, 0.000000, 0.000000, 0.000000, 0.000000, -0.006828, -0.000589, 9.821007, -0.002764, -0.026787
0.600000, -0.002343, -0.003415, 9.819116, 0.004097, 0.005199, 0.005197, -0.005827, -0.023191, -0.023191, 239.352898, 0.000000, 0.000000, 0.000000, 0.000000, 0.000000, 0.000000, -0.000844, -0.005376, 9.818613, -0.019927, -0.013669
0.650000, -0.001443, -0.001001, 9.819533, 0.007304, 0.007643, 0.003059, -0.000198, -0.016171, -0.016171, 237.321200, 0.000000, 0.000000, 0.000000, 0.000000, 0.000000, 0.000000, -0.000844, 0.000608, 9.819810, -0.005841, -0.008421
0.700000, -0.002520, -0.000754, 9.819699, 0.003486, 0.005963, 0.011305, -0.003980, -0.015877, -0.015877, 238.751972, 0.000000, 0.000000, 0.000000, 0.000000, 0.000000, 0.000000, -0.003237, -0.000589, 9.819810, -0.004397, -0.014702
0.750000, -0.003668, -0.000655, 9.820484, 0.003334, 0.002603, 0.005960, -0.007135, -0.024612, -0.024612, 238.156030, 0.000000, 0.000000, 0.000000, 0.000000, 0.000000, 0.000000, -0.004434, -0.000589, 9.821007, -0.003819, -0.021402
0.800000, -0.004128, 0.002975, 9.820798, 0.003486, 0.000618, 0.007946, -0.004776, -0.036528, -0.036528, 237.988785, 0.000000, 0.000000, 0.000000, 0.000000, 0.000000, 0.000000, -0.004434, 0.005396, 9.821007, 0.017359, -0.024082
0.850000, -0.004312, 0.004427, 9.822359, 0.008526, 0.002298, 0.008098, 0.010491, -0.042333, -0.042333, 239.163633, 0.000000, 0.000000, 0.000000, 0.000000, 0.000000, 0.000000, -0.004434, 0.005396, 9.823400, 0.025826, -0.025150
0.900000, -0.003667, 0.004290, 9.823702, -0.000484, 0.004130, 0.010542, 0.001909, -0.041956, -0.041956, 236.655557, 0.000000, 0.000000, 0.000000, 0.000000, 0.000000, 0.000000, -0.003237, 0.004199, 9.824597, 0.025022, -0.021388
0.950000, -0.001255, -0.002228, 9.822803, 0.006388, 0.003367, 0.007029, 0.004109, -0.040737, -0.040737, 237.644678, 0.000000, 0.000000, 0.000000, 0.000000, 0.000000, 0.000000, 0.000353, -0.006573, 9.822204, -0.012993, -0.007320
1.000000, -0.003162, -0.002680, 9.824598, 0.009290, 0.005657, 0.010542, 0.012223, -0.036123, -0.036123, 237.679416, 0.000000, 0.000000, 0.000000, 0.000000, 0.000000, 0.000000, -0.004434, -0.002982, 9.825794, -0.015632, -0.018443
1.050000, -0.006080, -0.004298, 9.823879, 0.009442, 0.006726, 0.008556, 0.017610, -0.032540, -0.032540, 237.976922, 0.000000, 0.000000, 0.000000, 0.000000, 0.000000, 0.000000, -0.008025, -0.005376, 9.823400, -0.025065, -0.035459
1.100000, -0.000784, -0.002790, 9.825028, 0.003639, 0.006726, 0.008251, 0.009451, -0.024533, -0.024533, 238.630433, 0.000000, 0.000000, 0.000000, 0.000000, 0.000000, 0.000000, 0.002747, -0.001785, 9.825794, -0.016272, -0.004571
1.150000, 0.001335, -0.000751, 9.826924, 0.003486, 0.005810, 0.007335, 0.003961, -0.017984, -0.017984, 238.950827, 0.000000, 0.000000, 0.000000, 0.000000, 0.000000, 0.000000, 0.002747, 0.000608, 9.828188, -0.004380, 0.007781
1.200000, -0.001409, -0.002090, 9.826964, 0.004861, 0.003061, 0.005349, 0.001436, -0.021431, -0.021431, 237.675666, 0.000000, 0.000000, 0.000000, 0.000000, 0.000000, 0.000000, -0.003237, -0.002982, 9.826991, -0.012185, -0.008213
1.250000, 0.001085, -0.000471, 9.826262, 0.005166, 0.000007, 0.007029, 0.001355, -0.029689, -0.029689, 237.809561, 0.000000, 0.000000, 0.000000, 0.000000, 0.000000, 0.000000, 0.002747, 0.000608, 9.825794, -0.002746, 0.006325
1.300000, -0.005099, -0.002696, 9.828854, 0.000585, 0.003672, 0.006571, -0.011831, -0.032727, -0.032727, 236.874250, 0.000000, 0.000000, 0.000000, 0.000000, 0.000000, 0.000000, -0.009221, -0.004179, 9.830581, -0.015715, -0.029724
1.350000, -0.003264, -0.001431, 9.825582, 0.012802, 0.006421, 0.007029, 0.008002, -0.027081, -0.027081, 236.769883, 0.000000, 0.000000, 0.000000, 0.000000, 0.000000, 0.000000, -0.002040, -0.000589, 9.823400, -0.008347, -0.019033
1.400000, -0.001812, -0.000926, 9.827863, 0.002723, 0.004894, 0.008709, 0.000498, -0.024836, -0.024836, 237.816180, 0.000000, 0.000000, 0.000000, 0.000000, 0.000000, 0.000000, -0.000844, -0.000589, 9.829385, -0.005397, -0.010562
1.450000, -0.001949, -0.002878, 9.828776, 0.005930, 0.004130, 0.005808, 0.000489, -0.024849, -0.024849, 236.092963, 0.000000, 0.000000, 0.000000, 0.000000, 0.000000, 0.000000, -0.002040, -0.004179, 9.829385, -0.016775, -0.011361
1.500000, -0.006312, 0.001368, 9.826269, 0.007610, 0.009170, 0.007182, 0.007734, -0.015360, -0.015360, 237.869465, 0.000000, 0.000000, 0.000000, 0.000000, 0.000000, 0.000000, -0.009221, 0.004199, 9.824597, 0.007977, -0.036807
1.550000, -0.001595, -0.002678, 9.823830, 0.011580, 0.005657, 0.004433, 0.021234, -0.012583, -0.012583, 239.007495, 0.000000, 0.000000, 0.000000, 0.000000, 0.000000, 0.000000, 0.001550, -0.005376, 9.822204, -0.015621, -0.009302
1.600000, -0.001862, -0.002143, 9.823572, 0.002265, 0.004741, 0.010236, 0.009882, -0.012624, -0.012624, 238.646612, 0.000000, 0.000000, 0.000000, 0.000000, 0.000000, 0.000000, -0.002040, -0.001785, 9.823400, -0.012496, -0.010862
1.650000, -0.001251, -0.003364, 9.824187, 0.008984, 0.004588, 0.007487, 0.015995, -0.012634, -0.012634, 239.392233, 0.000000, 0.000000, 0.000000, 0.000000, 0.000000, 0.000000, -0.000844, -0.004179, 9.824597, -0.019622, -0.007297
1.700000, 0.001148, -0.002417, 9.822997, 0.006693, -0.000146, 0.008709, 0.016133, -0.023096, -0.023096, 236.903003, 0.000000, 0.000000, 0.000000, 0.000000, 0.000000, 0.000000, 0.002747, -0.001785, 9.822204, -0.014098, 0.006694
1.750000, 0.002107, -0.001320, 9.822521, 0.005013, 0.008865, 0.007946, 0.012602, -0.008747, -0.008747, 237.654143, 0.000000, 0.000000, 0.000000, 0.000000, 0.000000, 0.000000, 0.002747, -0.000589, 9.822204, -0.007700, 0.012291
1.800000, -0.001818, -0.003035, 9.822331, 0.002875, 0.003519, 0.006266, 0.002862, -0.012015, -0.012015, 238.429299, 0.000000, 0.000000, 0.000000, 0.000000, 0.000000, 0.000000, -0.004434, -0.004179, 9.822204, -0.017706, -0.010603
1.850000, -0.001233, -0.001567, 9.820818, 0.009595, 0.005352, 0.005960, 0.012226, -0.009880, -0.009880, 238.525118, 0.000000, 0.000000, 0.000000, 0.000000, 0.000000, 0.000000, -0.000844, -0.000589, 9.819810, -0.009144, -0.007195
1.900000, -0.000281, 0.000456, 9.819495, 0.005319, 0.007185, 0.010542, 0.010803, -0.002677, -0.002677, 238.242832, 0.000000, 0.000000, 0.000000, 0.000000, 0.000000, 0.000000, 0.000353, 0.001805, 9.818613, 0.002661, -0.001642
1.950000, 0.000099, -0.002325, 9.818248, 0.004861, 0.004588, 0.009015, 0.006689, -0.002662, -0.002662, 238.215443, 0.000000, 0.000000, 0.000000, 0.000000, 0.000000, 0.000000, 0.000353, -0.004179, 9.817416, -0.013568, 0.000580
2.000000, 0.001688, -0.002001, 9.819185, 0.002570, 0.003061, 0.004891, -0.002789, -0.005667, -0.005667, 236.983070, 0.000000, 0.000000, 0.000000, 0.000000, 0.000000, 0.000000, 0.002747, -0.001785, 9.819810, -0.011677, 0.009849
2.050000, 0.001605, -0.004026, 9.822432, 0.006999, 0.007185, 0.009015, -0.001058, 0.002273, 0.002273, 238.302851, 0.000000, 0.000000, 0.000000, 0.000000, 0.000000, 0.000000, 0.001550, -0.005376, 9.824597, -0.023484, 0.009363
2.100000, 0.000136, -0.002682, 9.820859, 0.006082, 0.002145, 0.005349, -0.001168, -0.004407, -0.004407, 237.679416, 0.000000, 0.000000, 0.000000, 0.000000, 0.000000, 0.000000, -0.000844, -0.001785, 9.819810, -0.015645, 0.000793
2.150000, -0.000452, 0.002165, 9.819511, 0.001196, 0.006268, 0.007946, -0.011330, -0.000068, -0.000068, 237.159163, 0.000000, 0.000000, 0.000000, 0.000000, 0.000000, 0.000000, -0.000844, 0.005396, 9.818613, 0.012630, -0.002637
2.200000, -0.002841, 0.002667, 9.820409, 0.004708, 0.005963, 0.007946, -0.011096, 0.001783, 0.001783, 238.535127, 0.000000, 0.000000, 0.000000, 0.000000, 0.000000, 0.000000, -0.004434, 0.003002, 9.821007, 0.015560, -0.016577
2.250000, -0.003797, 0.002150, 9.818613, 0.006999, 0.002756, 0.006571, -0.005134, -0.005435, -0.005435, 237.694734, 0.000000, 0.000000, 0.000000, 0.000000, 0.000000, 0.000000, -0.004434, 0.001805, 9.817416, 0.012545, -0.022157
2.300000, -0.004897, 0.001943, 9.818613, 0.005624, 0.003978, 0.008251, -0.003360, -0.009433, -0.009433, 239.396345, 0.000000, 0.000000, 0.000000, 0.000000, 0.000000, 0.000000, -0.005631, 0.001805, 9.818613, 0.011338, -0.028578
2.350000, -0.003183, -0.001012, 9.820049, 0.006693, 0.004588, 0.007946, -0.000447, -0.010639, -0.010639, 237.091972, 0.000000, 0.000000, 0.000000, 0.000000, 0.000000, 0.000000, -0.002040, -0.002982, 9.821007, -0.005906, -0.018573
2.400000, -0.004652, 0.000678, 9.819188, 0.006541, 0.005505, 0.007946, 0.002663, -0.010111, -0.010111, 238.082189, 0.000000, 0.000000, 0.000000, 0.000000, 0.000000, 0.000000, -0.005631, 0.001805, 9.818613, 0.003957, -0.027144
2.450000, -0.001649, -0.000800, 9.819561, 0.006235, 0.004283, 0.007640, 0.003963, -0.011351, -0.011351, 239.045744, 0.000000, 0.000000, 0.000000, 0.000000, 0.000000, 0.000000, 0.000353, -0.001785, 9.819810, -0.004668, -0.009621
2.500000, 0.000270, 0.000763, 9.818274, 0.004708, 0.008712, 0.009778, 0.001910, 0.000079, 0.000079, 238.283273, 0.000000, 0.000000, 0.000000, 0.000000, 0.000000, 0.000000, 0.001550, 0.001805, 9.817416, 0.004453, 0.001578
2.550000, -0.000398, -0.000766, 9.817760, 0.009137, 0.005352, 0.006266, 0.010897, 0.001405, 0.001405, 238.588852, 0.000000, 0.000000, 0.000000, 0.000000, 0.000000, 0.000000, -0.000844, -0.001785, 9.817416, -0.004471, -0.002323
2.600000, -0.000665, -0.000660, 9.817554, 0.008373, 0.003367, 0.006877, 0.017145, -0.002731, -0.002731, 238.546548, 0.000000, 0.000000, 0.000000, 0.000000, 0.000000, 0.000000, -0.000844, -0.000589, 9.817416, -0.003849, -0.003883
2.650000, 0.002100, 0.001537, 9.814599, 0.003792, 0.005505, 0.006113, 0.011850, 0.000428, 0.000428, 238.341610, 0.000000, 0.000000, 0.000000, 0.000000, 0.000000, 0.000000, 0.003944, 0.003002, 9.812629, 0.008974, 0.012259
2.700000, -0.003257, 0.001698, 9.814853, 0.003639, 0.005810, 0.005197, 0.006658, 0.001592, 0.001592, 240.633026, 0.000000, 0.000000, 0.000000, 0.000000, 0.000000, 0.000000, -0.006828, 0.001805, 9.815023, 0.009912, -0.019011
2.750000, -0.001091, 0.001044, 9.814955, 0.005777, 0.004130, 0.004280, 0.007213, -0.000780, -0.000780, 239.454028, 0.000000, 0.000000, 0.000000, 0.000000, 0.000000, 0.000000, 0.000353, 0.000608, 9.815023, 0.006095, -0.006367
2.800000, -0.003097, 0.000783, 9.814278, 0.006541, 0.002756, 0.005349, 0.009607, -0.007539, -0.007539, 239.877488, 0.000000, 0.000000, 0.000000, 0.000000, 0.000000, 0.000000, -0.004434, 0.000608, 9.813826, 0.004569, -0.018079
2.850000, -0.003899, 0.002114, 9.811134, 0.007304, 0.004436, 0.009015, 0.014433, -0.009732, -0.009732, 236.706437, 0.000000, 0.000000, 0.000000, 0.000000, 0.000000, 0.000000, -0.004434, 0.003002, 9.809039, 0.012346, -0.022771
2.900000, -0.002066, 0.001211, 9.812031, 0.008221, 0.004588, 0.008556, 0.020865, -0.010527, -0.010527, 239.454028, 0.000000, 0.000000, 0.000000, 0.000000, 0.000000, 0.000000, -0.000844, 0.000608, 9.812629, 0.007069, -0.012063
2.950000, -0.002051, 0.002285, 9.811672, 0.009748, 0.007032, 0.009320, 0.031279, -0.004810, -0.004810, 237.414293, 0.000000, 0.000000, 0.000000, 0.000000, 0.000000, 0.000000, -0.002040, 0.003002, 9.811432, 0.013345, -0.011975
3.000000, -0.003481, 0.004151, 9.812964, 0.003944, 0.005810, 0.008251, 0.026368, -0.003442, -0.003442, 238.950827, 0.000000, 0.000000, 0.000000, 0.000000, 0.000000, 0.000000, -0.004434, 0.005396, 9.813826, 0.024239, -0.020323
3.050000, -0.000462, -0.000847, 9.814199, 0.006693, 0.003978, 0.008709, 0.026811, -0.005683, -0.005683, 238.713647, 0.000000, 0.000000, 0.000000, 0.000000, 0.000000, 0.000000, 0.001550, -0.004179, 9.815023, -0.004944, -0.002699
3.100000, 0.002899, -0.002128, 9.812539, 0.008373, 0.008101, 0.010389, 0.030994, 0.004679, 0.004679, 238.893646, 0.000000, 0.000000, 0.000000, 0.000000, 0.000000, 0.000000, 0.005140, -0.002982, 9.811432, -0.012426, 0.016929
3.150000, 0.002808, -0.002641, 9.809721, 0.007151, 0.005810, 0.006877, 0.031278, 0.008174, 0.008174, 237.162531, 0.000000, 0.000000, 0.000000, 0.000000, 0.000000, 0.000000, 0.002747, -0.002982, 9.807842, -0.015423, 0.016400
3.200000, 0.002771, -0.003564, 9.810030, 0.004097, 0.000771, 0.006266, 0.022929, -0.001918, -0.001918, 238.153087, 0.000000, 0.000000, 0.000000, 0.000000, 0.000000, 0.000000, 0.002747, -0.004179, 9.810235, -0.020814, 0.016185
3.250000, 0.002757, -0.001779, 9.811589, 0.003792, 0.001229, 0.003975, 0.015101, -0.009982, -0.009982, 238.488021, 0.000000, 0.000000, 0.000000, 0.000000, 0.000000, 0.000000, 0.002747, -0.000589, 9.812629, -0.010386, 0.016097
3.300000, -0.000840, 0.000372, 9.813649, 0.005624, 0.002756, 0.006113, 0.013617, -0.014929, -0.014929, 237.654143, 0.000000, 0.000000, 0.000000, 0.000000, 0.000000, 0.000000, -0.003237, 0.001805, 9.815023, 0.002169, -0.004903
3.350000, -0.002996, -0.000205, 9.813755, 0.009137, 0.000160, 0.009320, 0.021251, -0.027303, -0.027303, 237.778341, 0.000000, 0.000000, 0.000000, 0.000000, 0.000000, 0.000000, -0.004434, -0.000589, 9.813826, -0.001194, -0.017494
3.400000, -0.003141, 0.001719, 9.813798, 0.000890, 0.006116, 0.010084, 0.007275, -0.023009, -0.023009, 238.036605, 0.000000, 0.000000, 0.000000, 0.000000, 0.000000, 0.000000, -0.003237, 0.003002, 9.813826, 0.010038, -0.018338
3.450000, -0.003917, 0.001771, 9.811660, 0.013260, 0.005810, 0.005349, 0.027136, -0.020182, -0.020182, 239.396345, 0.000000, 0.000000, 0.000000, 0.000000, 0.000000, 0.000000, -0.004434, 0.001805, 9.810235, 0.010340, -0.022873
3.500000, -0.004227, 0.001791, 9.812242, 0.007457, 0.005810, 0.007640, 0.030090, -0.017714, -0.017714, 238.341610, 0.000000, 0.000000, 0.000000, 0.000000, 0.000000, 0.000000, -0.004434, 0.001805, 9.812629, 0.010460, -0.024684
3.550000, -0.002915, -0.001073, 9.813192, 0.004097, 0.006574, 0.005960, 0.022604, -0.012850, -0.012850, 237.714342, 0.000000, 0.000000, 0.000000, 0.000000, 0.000000, 0.000000, -0.002040, -0.002982, 9.813826, -0.006264, -0.017021
3.600000, 0.001918, -0.000782, 9.811418, 0.008526, 0.008559, 0.007335, 0.027462, -0.000976, -0.000976, 238.452924, 0.000000, 0.000000, 0.000000, 0.000000, 0.000000, 0.000000, 0.005140, -0.000589, 9.810235, -0.004568, 0.011202
3.650000, -0.000457, 0.000052, 9.812145, 0.001654, 0.006574, 0.007335, 0.014030, 0.003733, 0.003733, 237.456005, 0.000000, 0.000000, 0.000000, 0.000000, 0.000000, 0.000000, -0.002040, 0.000608, 9.812629, 0.000304, -0.002669
3.700000, 0.001465, -0.001769, 9.809563, 0.011886, 0.002909, 0.007029, 0.027875, -0.000795, -0.000795, 238.156030, 0.000000, 0.000000, 0.000000, 0.000000, 0.000000, 0.000000, 0.002747, -0.002982, 9.807842, -0.010330, 0.008558
3.750000, 0.002234, -0.001061, 9.810685, 0.006846, 0.006421, 0.009167, 0.027533, 0.004687, 0.004687, 237.247842, 0.000000, 0.000000, 0.000000, 0.000000, 0.000000, 0.000000, 0.002747, -0.000589, 9.811432, -0.006194, 0.013048
3.800000, 0.002542, 0.000659, 9.811133, 0.003792, 0.003825, 0.009473, 0.019783, 0.003036, 0.003036, 237.315846, 0.000000, 0.000000, 0.000000, 0.000000, 0.000000, 0.000000, 0.002747, 0.001805, 9.811432, 0.003847, 0.014844
3.850000, 0.000511, -0.000090, 9.809158, -0.000332, 0.001992, 0.007335, 0.001316, -0.004203, -0.004203, 238.140333, 0.000000, 0.000000, 0.000000, 0.000000, 0.000000, 0.000000, -0.000844, -0.000589, 9.807842, -0.000524, 0.002982
3.900000, -0.003892, 0.001047, 9.809087, 0.008984, 0.004741, 0.007793, 0.009413, -0.005524, -0.005524, 238.519200, 0.000000, 0.000000, 0.000000, 0.000000, 0.000000, 0.000000, -0.006828, 0.001805, 9.809039, 0.006117, -0.022736
3.950000, -0.003499, 0.002938, 9.811212, 0.007762, 0.004283, 0.005960, 0.014483, -0.007835, -0.007835, 239.918542, 0.000000, 0.000000, 0.000000, 0.000000, 0.000000, 0.000000, -0.003237, 0.004199, 9.812629, 0.017158, -0.020436
4.000000, -0.003342, 0.000822, 9.812062, 0.004250, 0.007948, 0.006877, 0.008947, -0.000227, -0.000227, 238.813755, 0.000000, 0.000000, 0.000000, 0.000000, 0.000000, 0.000000, -0.003237, -0.000589, 9.812629, 0.004800, -0.019516
4.050000, -0.003997, 0.002130, 9.809530, 0.008526, 0.005047, 0.009015, 0.015719, -0.001219, -0.001219, 238.497305, 0.000000, 0.000000, 0.000000, 0.000000, 0.000000, 0.000000, -0.004434, 0.003002, 9.807842, 0.012441, -0.023348
4.100000, -0.004977, 0.002653, 9.808517, 0.008831, 0.006726, 0.007335, 0.023013, 0.001823, 0.001823, 238.466299, 0.000000, 0.000000, 0.000000, 0.000000, 0.000000, 0.000000, -0.005631, 0.003002, 9.807842, 0.015498, -0.029076
4.150000, -0.001779, 0.003580, 9.809548, 0.008526, 0.007643, 0.009778, 0.029335, 0.008376, 0.008376, 238.024396, 0.000000, 0.000000, 0.000000, 0.000000, 0.000000, 0.000000, 0.000353, 0.004199, 9.810235, 0.020913, -0.010391
4.200000, -0.000500, -0.000357, 9.810679, 0.004250, 0.004283, 0.007487, 0.022108, 0.006038, 0.006038, 239.335008, 0.000000, 0.000000, 0.000000, 0.000000, 0.000000, 0.000000, 0.000353, -0.002982, 9.811432, -0.002086, -0.002919
4.250000, 0.001448, 0.002376, 9.808977, 0.006541, 0.007643, 0.008098, 0.022616, 0.013605, 0.013605, 239.506106, 0.000000, 0.000000, 0.000000, 0.000000, 0.000000, 0.000000, 0.002747, 0.004199, 9.807842, 0.013881, 0.008459
4.300000, 0.001509, -0.000121, 9.810450, 0.007304, 0.003519, 0.008709, 0.023996, 0.009688, 0.009688, 240.449836, 0.000000, 0.000000, 0.000000, 0.000000, 0.000000, 0.000000, 0.001550, -0.001785, 9.811432, -0.000705, 0.008815
4.350000, 0.000816, -0.002556, 9.810321, 0.005777, 0.004894, 0.006418, 0.020092, 0.009402, 0.009402, 239.026481, 0.000000, 0.000000, 0.000000, 0.000000, 0.000000, 0.000000, 0.000353, -0.004179, 9.810235, -0.014926, 0.004763
4.400000, -0.000180, 0.000061, 9.813142, 0.006846, 0.004436, 0.006266, 0.020354, 0.007476, 0.007476, 238.156030, 0.000000, 0.000000, 0.000000, 0.000000, 0.000000, 0.000000, -0.000844, 0.001805, 9.815023, 0.000355, -0.001051
4.450000, -0.002014, -0.000329, 9.815707, 0.008068, 0.004894, 0.006877, 0.023607, 0.006084, 0.006084, 238.930194, 0.000000, 0.000000, 0.000000, 0.000000, 0.000000, 0.000000, -0.003237, -0.000589, 9.817416, -0.001920, -0.011758
4.500000, -0.005620, -0.000485, 9.815296, 0.002417, 0.004894, 0.006571, 0.011497, 0.003173, 0.003173, 238.892019, 0.000000, 0.000000, 0.000000, 0.000000, 0.000000, 0.000000, -0.008025, -0.000589, 9.815023, -0.002829, -0.032809
4.550000, -0.002036, 0.000889, 9.816568, 0.006541, 0.003825, 0.007487, 0.011779, -0.000896, -0.000896, 237.193034, 0.000000, 0.000000, 0.000000, 0.000000, 0.000000, 0.000000, 0.000353, 0.001805, 9.817416, 0.005190, -0.011885
4.600000, -0.005629, 0.000721, 9.819231, 0.003639, 0.004436, 0.005808, 0.004255, -0.004638, -0.004638, 238.519200, 0.000000, 0.000000, 0.000000, 0.000000, 0.000000, 0.000000, -0.008025, 0.000608, 9.821007, 0.004205, -0.032847
4.650000, -0.004912, 0.003526, 9.821015, 0.008373, 0.004588, 0.008709, 0.011064, -0.007465, -0.007465, 238.542085, 0.000000, 0.000000, 0.000000, 0.000000, 0.000000, 0.000000, -0.004434, 0.005396, 9.822204, 0.020568, -0.028658
4.700000, -0.004625, -0.000379, 9.819574, 0.009137, 0.006574, 0.007182, 0.017717, -0.004755, -0.004755, 236.808822, 0.000000, 0.000000, 0.000000, 0.000000, 0.000000, 0.000000, -0.004434, -0.002982, 9.818613, -0.002212, -0.026988
4.750000, -0.005229, 0.001649, 9.819716, 0.004403, 0.004741, 0.007946, 0.012148, -0.007432, -0.007432, 237.380757, 0.000000, 0.000000, 0.000000, 0.000000, 0.000000, 0.000000, -0.005631, 0.003002, 9.819810, 0.009624, -0.030508
4.800000, -0.005470, -0.001848, 9.817618, 0.011580, 0.005047, 0.007946, 0.024493, -0.009271, -0.009271, 238.744640, 0.000000, 0.000000, 0.000000, 0.000000, 0.000000, 0.000000, -0.005631, -0.004179, 9.816220, -0.010783, -0.031923
4.850000, -0.001976, -0.003965, 9.819651, 0.002570, 0.004436, 0.008098, 0.011007, -0.011137, -0.011137, 237.823462, 0.000000, 0.000000, 0.000000, 0.000000, 0.000000, 0.000000, 0.000353, -0.005376, 9.821007, -0.023133, -0.011530
4.900000, -0.000579, -0.003375, 9.817592, 0.009137, 0.006116, 0.005960, 0.016094, -0.007802, -0.007802, 238.242724, 0.000000, 0.000000, 0.000000, 0.000000, 0.000000, 0.000000, 0.000353, -0.002982, 9.816220, -0.019698, -0.003376
4.950000, -0.002174, -0.001703, 9.816769, 0.005624, 0.005963, 0.006571, 0.012114, -0.005804, -0.005804, 238.552065, 0.000000, 0.000000, 0.000000, 0.000000, 0.000000, 0.000000, -0.003237, -0.000589, 9.816220, -0.009941, -0.012687
5.000000, -0.001376, -0.000316, 9.817875, 0.003486, 0.005505, 0.005502, 0.003303, -0.004841, -0.004841, 238.132722, 0.000000, 0.000000, 0.000000, 0.000000, 0.000000, 0.000000, -0.000844, 0.000608, 9.818613, -0.001846, -0.008028
5.050000, -0.003211, 0.000956, 9.816164, 0.003334, 0.002603, 0.010084, -0.004715, -0.012451, -0.012451, 238.494208, 0.000016, -0.000019, 0.000028, -0.000198, 0.000235, -0.000337, -0.004434, 0.001805, 9.815023, 0.005583, -0.018741
5.100000, -0.004663, 0.001466, 9.815479, -0.000026, 0.003978, 0.005197, -0.020791, -0.016500, -0.016500, 236.826781, 0.000045, -0.000071, 0.000072, -0.000406, 0.000693, -0.000642, -0.005631, 0.001805, 9.815023, 0.008555, -0.027218
5.150000, -0.003089, 0.003105, 9.818078, -0.000942, 0.001534, 0.010084, -0.037297, -0.026070, -0.026070, 237.784765, 0.000074, -0.000165, 0.000145, -0.000486, 0.001362, -0.001090, -0.002040, 0.004199, 9.819810, 0.018123, -0.018029
5.200000, -0.002460, -0.000547, 9.818399, 0.007610, 0.000618, 0.007182, -0.031330, -0.037057, -0.037057, 238.162928, 0.000124, -0.000281, 0.000244, -0.000760, 0.001846, -0.001556, -0.002040, -0.002982, 9.818613, -0.003193, -0.014356
5.250000, -0.002208, 0.000146, 9.817809, 0.007151, 0.003061, 0.008862, -0.026639, -0.040572, -0.040572, 237.002295, 0.000190, -0.000424, 0.000366, -0.001054, 0.002336, -0.001988, -0.002040, 0.000608, 9.817416, 0.000852, -0.012887
5.300000, -0.004262, 0.000423, 9.816137, 0.004097, 0.001992, 0.007946, -0.030196, -0.047473, -0.047473, 237.724356, 0.000284, -0.000605, 0.000505, -0.001474, 0.002963, -0.002328, -0.005631, 0.000608, 9.815023, 0.002471, -0.024876
5.350000, -0.002929, -0.000902, 9.814750, 0.004097, 0.002909, 0.009015, -0.033970, -0.050784, -0.050784, 238.637620, 0.000399, -0.000817, 0.000656, -0.001877, 0.003535, -0.002591, -0.002040, -0.001785, 9.813826, -0.005265, -0.017099
5.400000, -0.004550, 0.001440, 9.814914, 0.005624, 0.002298, 0.007335, -0.032310, -0.056077, -0.056077, 238.836276, 0.000541, -0.001075, 0.000822, -0.002339, 0.004278, -0.002863, -0.005631, 0.003002, 9.815023, 0.008408, -0.026562
5.450000, -0.005917, 0.002377, 9.817133, 0.007762, 0.003672, 0.008709, -0.024581, -0.057840, -0.057840, 237.612246, 0.000717, -0.001376, 0.001013, -0.002891, 0.005051, -0.003257, -0.006828, 0.003002, 9.818613, 0.013874, -0.034532
5.500000, -0.002155, 0.002034, 9.816585, 0.005930, 0.003367, 0.007029, -0.022325, -0.058576, -0.058576, 237.663744, 0.000911, -0.001710, 0.001225, -0.003294, 0.005686, -0.003623, 0.000353, 0.001805, 9.816220, 0.011871, -0.012577
5.550000, -0.004240, 0.003333, 9.816366, 0.006846, 0.005810, 0.009167, -0.017144, -0.053555, -0.053555, 237.823462, 0.001132, -0.002084, 0.001456, -0.003743, 0.006377, -0.003977, -0.005631, 0.004199, 9.816220, 0.019453, -0.024751
5.600000, -0.002920, 0.000262, 9.816278, 0.004708, 0.004283, 0.009625, -0.019250, -0.052298, -0.052298, 239.471540, 0.001378, -0.002481, 0.001706, -0.004199, 0.006893, -0.004325, -0.002040, -0.001785, 9.816220, 0.001528, -0.017046
5.650000, -0.002392, 0.000470, 9.817679, 0.008068, 0.001381, 0.005808, -0.012141, -0.058496, -0.058496, 237.782199, 0.001653, -0.002904, 0.001981, -0.004708, 0.007377, -0.004751, -0.002040, 0.000608, 9.818613, 0.002741, -0.013962
5.700000, -0.004336, 0.002707, 9.820394, 0.002112, 0.000465, 0.009473, -0.020335, -0.067378, -0.067378, 238.503500, 0.001961, -0.003376, 0.002293, -0.005275, 0.008135, -0.005326, -0.005631, 0.004199, 9.822204, 0.015794, -0.025295
5.750000, -0.002240, -0.000707, 9.820044, 0.006541, 0.002603, 0.007946, -0.017558, -0.068896, -0.068896, 239.104955, 0.002304, -0.003871, 0.002635, -0.005870, 0.008655, -0.005883, -0.000844, -0.002982, 9.819810, -0.004122, -0.013072
5.800000, -0.002120, -0.001354, 9.819185, 0.004097, 0.000923, 0.005349, -0.021709, -0.074540, -0.074540, 238.761559, 0.002682, -0.004396, 0.003003, -0.006503, 0.009202, -0.006392, -0.002040, -0.001785, 9.818613, -0.007900, -0.012373
5.850000, -0.004227, 0.000541, 9.818124, 0.007457, 0.004436, 0.007640, -0.015779, -0.071189, -0.071189, 238.256054, 0.003099, -0.004959, 0.003395, -0.007182, 0.009834, -0.006842, -0.005631, 0.001805, 9.817416, 0.003160, -0.024666
5.900000, -0.004351, 0.002736, 9.819854, -0.000790, 0.003061, 0.005808, -0.031144, -0.071652, -0.071652, 239.619216, 0.003542, -0.005576, 0.003819, -0.007730, 0.010699, -0.007386, -0.004434, 0.004199, 9.821007, 0.015963, -0.025388
5.950000, -0.004401, 0.002177, 9.819827, 0.008679, 0.002450, 0.006724, -0.020368, -0.073587, -0.073587, 238.625836, 0.004023, -0.006232, 0.004274, -0.008367, 0.011462, -0.007930, -0.004434, 0.001805, 9.819810, 0.012704, -0.025678
6.000000, -0.004421, -0.000200, 9.820535, 0.014024, 0.005047, 0.005349, 0.002835, -0.068366, -0.068366, 238.145809, 0.004554, -0.006905, 0.004763, -0.009150, 0.011901, -0.008515, -0.004434, -0.001785, 9.821007, -0.001169, -0.025792
6.050000, -0.005865, -0.002588, 9.820100, 0.003486, 0.003519, 0.008556, -0.004680, -0.068089, -0.068089, 238.892019, 0.005136, -0.007602, 0.005283, -0.010031, 0.012328, -0.009076, -0.006828, -0.004179, 9.819810, -0.015097, -0.034220
6.100000, -0.004288, 0.000048, 9.821362, 0.007304, 0.004130, 0.007182, -0.000395, -0.065428, -0.065428, 239.026481, 0.005754, -0.008325, 0.005840, -0.010761, 0.012785, -0.009706, -0.003237, 0.001805, 9.822204, 0.000280, -0.025018
6.150000, -0.005812, 0.003256, 9.823303, 0.003944, 0.003367, 0.005808, -0.003939, -0.065537, -0.065537, 239.007495, 0.006408, -0.009091, 0.006439, -0.011452, 0.013466, -0.010443, -0.006828, 0.005396, 9.824597, 0.018994, -0.033899
6.200000, -0.005703, -0.000487, 9.822643, 0.005013, 0.003367, 0.006266, -0.005947, -0.065499, -0.065499, 238.851951, 0.007108, -0.009881, 0.007077, -0.012237, 0.013983, -0.011144, -0.005631, -0.002982, 9.822204, -0.002839, -0.033268
6.250000, -0.003506, 0.001606, 9.822380, 0.000279, 0.004741, 0.005960, -0.019436, -0.060771, -0.060771, 239.026481, 0.007830, -0.010709, 0.007752, -0.012752, 0.014620, -0.011830, -0.002040, 0.003002, 9.822204, 0.009371, -0.020449
6.300000, -0.000472, 0.000289, 9.823710, 0.004097, 0.001229, 0.007182, -0.022288, -0.064271, -0.064271, 236.779688, 0.008574, -0.011566, 0.008473, -0.013177, 0.015149, -0.012591, 0.001550, -0.000589, 9.824597, 0.001688, -0.002754
6.350000, -0.001413, 0.001199, 9.822088, 0.001959, 0.005352, 0.007487, -0.030130, -0.056810, -0.056810, 238.048989, 0.009333, -0.012458, 0.009227, -0.013518, 0.015774, -0.013261, -0.002040, 0.001805, 9.821007, 0.006993, -0.008244
6.400000, -0.003944, 0.001563, 9.822876, 0.002265, 0.003825, 0.004433, -0.036312, -0.054916, -0.054916, 238.488021, 0.010116, -0.013395, 0.010021, -0.013922, 0.016529, -0.013974, -0.005631, 0.001805, 9.823400, 0.009114, -0.023004
6.450000, -0.007828, 0.000990, 9.823909, -0.003233, 0.005199, 0.007182, -0.056726, -0.051117, -0.051117, 238.274658, 0.010935, -0.014404, 0.010868, -0.014398, 0.017527, -0.014751, -0.010418, 0.000608, 9.824597, 0.005774, -0.045658
6.500000, -0.006510, 0.000761, 9.821449, -0.000637, 0.003825, 0.007029, -0.068654, -0.050656, -0.050656, 237.654143, 0.011764, -0.015463, 0.011740, -0.014751, 0.018562, -0.015386, -0.005631, 0.000608, 9.819810, 0.004439, -0.037977
6.550000, -0.003828, 0.001387, 9.821902, 0.005930, 0.001687, 0.005960, -0.061799, -0.054695, -0.054695, 239.007164, 0.012607, -0.016575, 0.012651, -0.015026, 0.019515, -0.016047, -0.002040, 0.001805, 9.822204, 0.008093, -0.022332
6.600000, -0.005628, 0.001638, 9.822083, 0.005013, 0.006116, 0.007335, -0.057574, -0.047380, -0.047380, 237.799008, 0.013467, -0.017736, 0.013597, -0.015340, 0.020459, -0.016717, -0.006828, 0.001805, 9.822204, 0.009555, -0.032830
6.650000, -0.004912, -0.001134, 9.822873, 0.004555, 0.006421, 0.007793, -0.055892, -0.039448, -0.039448, 238.567792, 0.014345, -0.018935, 0.014585, -0.015645, 0.021199, -0.017431, -0.004434, -0.002982, 9.823400, -0.006615, -0.028649
6.700000, -0.005343, -0.000089, 9.822472, -0.000026, 0.002450, 0.005808, -0.065884, -0.042790, -0.042790, 236.878293, 0.015234, -0.020184, 0.015609, -0.015916, 0.022097, -0.018122, -0.005631, 0.000608, 9.822204, -0.000518, -0.031168
6.750000, -0.004080, 0.001766, 9.823747, 0.005166, 0.000312, 0.008862, -0.060370, -0.050968, -0.050968, 239.083871, 0.016139, -0.021490, 0.016679, -0.016167, 0.023044, -0.018885, -0.003237, 0.003002, 9.824597, 0.010298, -0.023794
6.800000, -0.003574, 0.001789, 9.826411, -0.001859, 0.003519, 0.006724, -0.073677, -0.049735, -0.049735, 237.103232, 0.017048, -0.022854, 0.017801, -0.016316, 0.024077, -0.019793, -0.003237, 0.001805, 9.828188, 0.010433, -0.020841
6.850000, -0.004808, 0.003953, 9.826759, 0.001654, 0.002909, 0.008098, -0.075496, -0.050667, -0.050667, 238.024396, 0.017964, -0.024287, 0.018975, -0.016458, 0.025267, -0.020721, -0.005631, 0.005396, 9.826991, 0.023048, -0.028035
6.900000, -0.006020, 0.002664, 9.826180, 0.003334, 0.003978, 0.008251, -0.073002, -0.049157, -0.049157, 237.871740, 0.018898, -0.025786, 0.020201, -0.016694, 0.026408, -0.021619, -0.006828, 0.001805, 9.825794, 0.015535, -0.035102
6.950000, -0.005068, 0.001431, 9.823076, 0.002417, 0.002145, 0.007029, -0.073404, -0.052164, -0.052164, 238.188819, 0.019844, -0.027338, 0.021460, -0.016944, 0.027477, -0.022342, -0.004434, 0.000608, 9.821007, 0.008344, -0.029563
7.000000, -0.006124, 0.004528, 9.823989, 0.005624, 0.003061, 0.007640, -0.063691, -0.052911, -0.052911, 238.437491, 0.020806, -0.028960, 0.022764, -0.017207, 0.028650, -0.023117, -0.006828, 0.006592, 9.824597, 0.026406, -0.035717
7.050000, -0.003674, 0.002894, 9.823636, 0.008068, 0.003825, 0.007029, -0.048675, -0.050464, -0.050464, 238.319486, 0.021782, -0.030626, 0.024111, -0.017459, 0.029542, -0.023874, -0.002040, 0.001805, 9.823400, 0.016880, -0.021428
7.100000, -0.004848, 0.003677, 9.824931, 0.003334, 0.000771, 0.005502, -0.046800, -0.056722, -0.056722, 237.654143, 0.022781, -0.032348, 0.025506, -0.017802, 0.030522, -0.024702, -0.005631, 0.004199, 9.825794, 0.021442, -0.028273
7.150000, -0.006036, 0.000399, 9.824731, 0.011428, 0.003978, 0.006418, -0.024835, -0.054447, -0.054447, 237.411336, 0.023817, -0.034097, 0.026944, -0.018389, 0.031192, -0.025519, -0.006828, -0.001785, 9.824597, 0.002330, -0.035200
7.200000, -0.006511, 0.001243, 9.823214, 0.007304, 0.003367, 0.005655, -0.014995, -0.054112, -0.054112, 237.454107, 0.024890, -0.035883, 0.028422, -0.019020, 0.031836, -0.026252, -0.006828, 0.001805, 9.822204, 0.007249, -0.037977
7.250000, -0.008855, 0.000144, 9.821172, 0.007915, -0.000298, 0.008862, -0.004682, -0.064493, -0.064493, 236.805317, 0.026020, -0.037700, 0.029929, -0.019927, 0.032467, -0.026870, -0.010418, -0.000589, 9.819810, 0.000840, -0.051661
7.300000, -0.007639, 0.001859, 9.823227, 0.004403, 0.007185, 0.006724, -0.003689, -0.053694, -0.053694, 235.731668, 0.027188, -0.039556, 0.031484, -0.020646, 0.033084, -0.027605, -0.006828, 0.003002, 9.824597, 0.010841, -0.044555
7.350000, -0.004998, 0.001827, 9.823331, 0.011275, 0.006268, 0.004586, 0.015477, -0.044954, -0.044954, 237.498536, 0.028388, -0.041424, 0.033080, -0.021267, 0.033422, -0.028346, -0.003237, 0.001805, 9.823400, 0.010653, -0.029151
7.400000, -0.006096, 0.001814, 9.820500, 0.006235, 0.001840, 0.005960, 0.019834, -0.049040, -0.049040, 238.717346, 0.029628, -0.043308, 0.034702, -0.021994, 0.033778, -0.028928, -0.006828, 0.001805, 9.818613, 0.010581, -0.035565
7.450000, -0.005817, 0.000372, 9.820086, 0.008526, 0.004283, 0.004891, 0.029285, -0.046184, -0.046184, 237.788602, 0.030912, -0.045196, 0.036351, -0.022775, 0.033968, -0.029486, -0.005631, -0.000589, 9.819810, 0.002172, -0.033939
7.500000, -0.005705, 0.001950, 9.821357, 0.009442, 0.005199, 0.006724, 0.041069, -0.041027, -0.041027, 237.869465, 0.032239, -0.047093, 0.038040, -0.023524, 0.034107, -0.030116, -0.005631, 0.003002, 9.822204, 0.011376, -0.033284
7.550000, -0.004943, -0.000291, 9.820429, 0.009900, 0.003061, 0.006571, 0.052128, -0.041568, -0.041568, 236.064359, 0.033617, -0.048983, 0.039763, -0.024365, 0.034034, -0.030696, -0.004434, -0.001785, 9.819810, -0.001699, -0.028837
7.600000, -0.005356, 0.002403, 9.824366, 0.005624, 0.002756, 0.007487, 0.052042, -0.043022, -0.043022, 237.694734, 0.035033, -0.050877, 0.041531, -0.025155, 0.034108, -0.031492, -0.005631, 0.004199, 9.826991, 0.014013, -0.031234
7.650000, -0.005521, 0.002762, 9.824505, 0.007151, 0.002603, 0.004433, 0.056058, -0.044809, -0.044809, 237.788602, 0.036502, -0.052780, 0.043351, -0.025979, 0.034181, -0.032298, -0.005631, 0.003002, 9.824597, 0.016109, -0.032197
7.700000, -0.004869, 0.002188, 9.822406, 0.005624, 0.006879, 0.006418, 0.055360, -0.034807, -0.034807, 237.391707, 0.038006, -0.054678, 0.045203, -0.026705, 0.034163, -0.032987, -0.004434, 0.001805, 9.821007, 0.012762, -0.028401
7.750000, -0.005326, 0.001240, 9.823003, 0.005472, 0.003519, 0.007640, 0.053775, -0.034639, -0.034639, 237.739311, 0.039551, -0.056571, 0.047093, -0.027470, 0.034126, -0.033708, -0.005631, 0.000608, 9.823400, 0.007233, -0.031066
7.800000, -0.003355, 0.002297, 9.823241, 0.000737, 0.007337, 0.006113, 0.040082, -0.023493, -0.023493, 237.669814, 0.041118, -0.058468, 0.049028, -0.027953, 0.034133, -0.034444, -0.002040, 0.003002, 9.823400, 0.013399, -0.019567
7.850000, -0.006875, 0.002720, 9.823337, 0.002265, 0.006268, 0.007182, 0.031566, -0.017533, -0.017533, 237.254542, 0.042714, -0.060376, 0.051001, -0.028495, 0.034302, -0.035184, -0.009221, 0.003002, 9.823400, 0.015865, -0.040098
7.900000, -0.004692, 0.002171, 9.825529, 0.003639, 0.006574, 0.009167, 0.027045, -0.010322, -0.010322, 236.499915, 0.044327, -0.062286, 0.053025, -0.028871, 0.034380, -0.036046, -0.003237, 0.001805, 9.826991, 0.012660, -0.027362
7.950000, -0.005974, 0.001951, 9.822816, 0.001043, 0.006116, 0.005655, 0.015841, -0.005471, -0.005471, 237.823462, 0.045956, -0.064206, 0.055082, -0.029216, 0.034551, -0.036756, -0.006828, 0.001805, 9.821007, 0.011383, -0.034843
8.000000, -0.006486, 0.004018, 9.823885, 0.007151, 0.005810, 0.008404, 0.022553, -0.002099, -0.002099, 237.559029, 0.047604, -0.066142, 0.057187, -0.029532, 0.034764, -0.037527, -0.006828, 0.005396, 9.824597, 0.023433, -0.037829
8.050000, -0.009563, 0.001972, 9.824312, 0.006388, 0.005199, 0.007182, 0.025853, -0.002039, -0.002039, 237.882665, 0.049290, -0.068088, 0.059338, -0.030069, 0.034946, -0.038322, -0.011615, 0.000608, 9.824597, 0.011501, -0.055774
8.100000, -0.007204, 0.001154, 9.825201, 0.001043, 0.005505, 0.005960, 0.014339, -0.000302, -0.000302, 238.724497, 0.050992, -0.070042, 0.061537, -0.030448, 0.035102, -0.039166, -0.005631, 0.000608, 9.825794, 0.006728, -0.042010
8.150000, -0.010569, 0.000108, 9.825557, -0.000790, 0.004741, 0.008098, -0.001651, -0.002303, -0.002303, 237.575761, 0.052721, -0.072017, 0.063780, -0.030948, 0.035448, -0.040029, -0.012812, -0.000589, 9.825794, 0.000632, -0.061629
8.200000, -0.009760, -0.001028, 9.827854, 0.005777, 0.003519, 0.008556, 0.000473, -0.007212, -0.007212, 238.096417, 0.054483, -0.074006, 0.066082, -0.031495, 0.035725, -0.041019, -0.009221, -0.001785, 9.829385, -0.005993, -0.056902
8.250000, -0.006565, 0.002108, 9.827336, 0.007762, 0.003825, 0.007335, 0.009047, -0.009700, -0.009700, 237.048200, 0.056260, -0.076010, 0.068438, -0.031863, 0.035997, -0.041980, -0.004434, 0.004199, 9.826991, 0.012290, -0.038273
8.300000, -0.005286, 0.001208, 9.824975, 0.001806, 0.007796, 0.009320, 0.000810, -0.001002, -0.001002, 237.619322, 0.058045, -0.078023, 0.070834, -0.032086, 0.036210, -0.042810, -0.004434, 0.000608, 9.823400, 0.007045, -0.030828
8.350000, -0.005493, 0.004439, 9.822594, 0.012955, 0.003978, 0.007487, 0.024166, -0.003252, -0.003252, 238.811172, 0.059845, -0.080045, 0.073263, -0.032359, 0.036404, -0.043508, -0.005631, 0.006592, 9.821007, 0.025891, -0.032042
8.400000, -0.006294, 0.003577, 9.825232, 0.006235, 0.007337, 0.006571, 0.027596, 0.003143, 0.003143, 238.406851, 0.061667, -0.082076, 0.075748, -0.032663, 0.036521, -0.044354, -0.006828, 0.003002, 9.826991, 0.020857, -0.036703
8.450000, -0.006614, 0.003232, 9.824133, 0.005777, 0.004283, 0.005502, 0.029385, 0.000709, 0.000709, 238.399755, 0.063506, -0.084108, 0.078270, -0.033020, 0.036630, -0.045137, -0.006828, 0.003002, 9.823400, 0.018848, -0.038575
8.500000, -0.005306, 0.003094, 9.827284, 0.007610, 0.003672, 0.008404, 0.035810, -0.002707, -0.002707, 237.952372, 0.065367, -0.086141, 0.080853, -0.033381, 0.036659, -0.046095, -0.004434, 0.003002, 9.829385, 0.018038, -0.030936
8.550000, -0.007655, 0.000166, 9.824954, 0.006999, 0.007185, 0.006877, 0.038811, 0.002340, 0.002340, 238.796112, 0.067267, -0.088172, 0.083485, -0.033915, 0.036570, -0.046926, -0.009221, -0.001785, 9.823400, 0.000970, -0.044643
8.600000, -0.007159, 0.004022, 9.826894, 0.009748, 0.005657, 0.008556, 0.050444, 0.003043, 0.003043, 238.503500, 0.069186, -0.090199, 0.086166, -0.034363, 0.036550, -0.047863, -0.006828, 0.006592, 9.828188, 0.023450, -0.041739
8.650000, -0.004806, 0.004128, 9.826234, 0.007915, 0.003825, 0.003670, 0.056319, -0.000271, -0.000271, 238.047987, 0.071125, -0.092218, 0.088897, -0.034755, 0.036435, -0.048764, -0.003237, 0.004199, 9.825794, 0.024070, -0.028023
8.700000, -0.006019, 0.003452, 9.823098, 0.005624, 0.005199, 0.006113, 0.055296, -0.000303, -0.000303, 238.436160, 0.073096, -0.094234, 0.091668, -0.035219, 0.036332, -0.049492, -0.006828, 0.003002, 9.821007, 0.020136, -0.035107
8.750000, -0.007940, 0.000310, 9.823997, 0.004097, 0.005505, 0.006724, 0.048833, -0.000458, -0.000458, 238.166019, 0.075103, -0.096240, 0.094482, -0.035834, 0.036190, -0.050269, -0.009221, -0.001785, 9.824597, 0.001806, -0.046310
8.800000, -0.006555, 0.000489, 9.820767, 0.003486, 0.004588, 0.007182, 0.041174, -0.002562, -0.002562, 237.314218, 0.077133, -0.098238, 0.097318, -0.036357, 0.036089, -0.050866, -0.005631, 0.000608, 9.818613, 0.002852, -0.038241
8.850000, -0.005282, 0.002715, 9.823783, 0.005777, 0.002603, 0.008709, 0.041017, -0.009321, -0.009321, 238.731010, 0.079185, -0.100238, 0.100200, -0.036807, 0.036090, -0.051630, -0.004434, 0.004199, 9.825794, 0.015833, -0.030809
8.900000, -0.003337, 0.002169, 9.824990, 0.003334, 0.007796, 0.004586, 0.034083, -0.001026, -0.001026, 239.084415, 0.081248, -0.102232, 0.103131, -0.037080, 0.036021, -0.052461, -0.002040, 0.001805, 9.825794, 0.012648, -0.019462
8.950000, -0.005432, -0.000204, 9.824754, 0.008526, 0.001992, 0.005960, 0.040339, -0.009698, -0.009698, 238.407283, 0.083349, -0.104219, 0.106108, -0.037623, 0.035895, -0.053278, -0.006828, -0.001785, 9.824597, -0.001188, -0.031676
9.000000, -0.004833, 0.000283, 9.825378, 0.007762, 0.003825, 0.008862, 0.044196, -0.012669, -0.012669, 239.731570, 0.085528, -0.106242, 0.109201, -0.038179, 0.035755, -0.054150, -0.004434, 0.000608, 9.825794, 0.001653, -0.028184
9.050000, -0.004594, 0.001914, 9.823473, 0.006082, 0.006421, 0.008556, 0.043898, -0.008476, -0.008476, 238.634928, 0.087685, -0.108219, 0.112269, -0.038628, 0.035668, -0.054898, -0.004434, 0.003002, 9.822204, 0.011166, -0.026793
9.100000, -0.005216, 0.002567, 9.822712, 0.000737, 0.006116, 0.009015, 0.029641, -0.005730, -0.005730, 239.598626, 0.089867, -0.110211, 0.115386, -0.038996, 0.035731, -0.055605, -0.005631, 0.003002, 9.822204, 0.014973, -0.030425
9.150000, -0.004029, 0.002110, 9.824561, 0.007610, 0.001534, 0.005349, 0.034425, -0.014889, -0.014889, 237.220559, 0.092070, -0.112198, 0.118544, -0.039418, 0.035745, -0.056415, -0.003237, 0.001805, 9.825794, 0.012304, -0.023496
9.200000, -0.002836, 0.000491, 9.826019, 0.002265, 0.001381, 0.005655, 0.023914, -0.023275, -0.023275, 238.913190, 0.094293, -0.114185, 0.121750, -0.039845, 0.035774, -0.057304, -0.002040, -0.000589, 9.826991, 0.002862, -0.016536
9.250000, -0.003077, 0.003434, 9.823012, 0.003181, 0.005963, 0.006266, 0.017836, -0.018976, -0.018976, 238.000490, 0.096527, -0.116185, 0.124987, -0.040133, 0.035976, -0.058025, -0.003237, 0.005396, 9.821007, 0.020028, -0.017946
9.300000, -0.005327, 0.001738, 9.826117, 0.009442, 0.004130, 0.004739, 0.028079, -0.020831, -0.020831, 238.143020, 0.098796, -0.118191, 0.128281, -0.040643, 0.036091, -0.058919, -0.006828, 0.000608, 9.828188, 0.010136, -0.031064
9.350000, -0.006946, -0.000376, 9.825923, 0.005930, 0.003978, 0.006571, 0.027275, -0.023686, -0.023686, 237.660346, 0.101104, -0.120198, 0.131620, -0.041309, 0.036174, -0.059802, -0.008025, -0.001785, 9.825794, -0.002192, -0.040501
9.400000, -0.004721, 0.003087, 9.825128, 0.001959, 0.003672, 0.006418, 0.017425, -0.026219, -0.026219, 237.871740, 0.103429, -0.122226, 0.135005, -0.041740, 0.036448, -0.060640, -0.003237, 0.005396, 9.824597, 0.018002, -0.027529
9.450000, -0.003831, 0.002318, 9.824809, 0.008373, 0.004894, 0.005502, 0.024982, -0.024941, -0.024941, 237.632717, 0.105781, -0.124260, 0.138436, -0.042179, 0.036593, -0.061461, -0.003237, 0.001805, 9.824597, 0.013517, -0.022339
9.500000, -0.004911, 0.002010, 9.823964, 0.003486, 0.007796, 0.009473, 0.018852, -0.016528, -0.016528, 238.269569, 0.108152, -0.126302, 0.141907, -0.042580, 0.036762, -0.062235, -0.005631, 0.001805, 9.823400, 0.011724, -0.028641
9.550000, -0.006779, 0.001887, 9.823626, 0.005930, 0.004283, 0.005960, 0.019583, -0.018902, -0.018902, 238.172553, 0.110563, -0.128365, 0.145431, -0.043096, 0.036986, -0.062993, -0.008025, 0.001805, 9.823400, 0.011006, -0.039539
9.600000, -0.002500, 0.002556, 9.825645, 0.008679, 0.006421, 0.007487, 0.027814, -0.013629, -0.013629, 238.552065, 0.112982, -0.130423, 0.149004, -0.043390, 0.037023, -0.063862, 0.000353, 0.003002, 9.826991, 0.014904, -0.014577
9.650000, -0.003660, 0.003542, 9.825734, 0.006235, 0.005505, 0.007946, 0.029344, -0.011686, -0.011686, 238.472759, 0.115416, -0.132486, 0.152621, -0.043700, 0.037119, -0.064735, -0.004434, 0.004199, 9.825794, 0.020652, -0.021344
9.700000, -0.004125, 0.004654, 9.823616, 0.008068, 0.004741, 0.007029, 0.036077, -0.012142, -0.012142, 238.269569, 0.117868, -0.134553, 0.156273, -0.044038, 0.037228, -0.065490, -0.004434, 0.005396, 9.822204, 0.027144, -0.024057
9.750000, -0.005028, 0.002227, 9.822769, 0.007457, 0.007032, 0.006418, 0.039608, -0.006919, -0.006919, 237.906614, 0.120343, -0.136613, 0.159961, -0.044464, 0.037194, -0.066198, -0.005631, 0.000608, 9.822204, 0.012987, -0.029331
9.800000, -0.003236, 0.001974, 9.827456, 0.001654, 0.006421, 0.007182, 0.027303, -0.002989, -0.002989, 239.007818, 0.122827, -0.138672, 0.163708, -0.044719, 0.037176, -0.067165, -0.002040, 0.001805, 9.830581, 0.011507, -0.018864
9.850000, -0.004673, 0.001154, 9.825023, 0.005166, 0.004283, 0.007793, 0.024825, -0.005691, -0.005691, 236.248407, 0.125339, -0.140737, 0.167505, -0.045076, 0.037195, -0.067998, -0.005631, 0.000608, 9.823400, 0.006732, -0.027250
9.900000, -0.002375, 0.002263, 9.826204, 0.006541, 0.005505, 0.007182, 0.026606, -0.004016, -0.004016, 236.153001, 0.127857, -0.142798, 0.171352, -0.045288, 0.037176, -0.068897, -0.000844, 0.003002, 9.826991, 0.013195, -0.013850
9.950000, -0.000738, -0.000166, 9.823086, 0.010969, 0.004894, 0.008709, 0.038901, -0.003402, -0.003402, 236.522984, 0.130388, -0.144835, 0.175230, -0.045551, 0.036894, -0.069622, 0.000353, -0.001785, 9.821007, -0.000969, -0.004306
10.000000, -0.002238, 0.000298, 9.823993, 0.011886, 0.005505, 0.008862, 0.052796, -0.001869, -0.001869, 236.992547, 0.132953, -0.146858, 0.179166, -0.045930, 0.036557, -0.070400, -0.003237, 0.000608, 9.824597, 0.001741, -0.013051
10.050000, -0.004992, 0.001921, 9.822919, 0.004250, 0.008254, 0.005808, 0.045968, 0.005608, 0.005608, 237.965330, 0.135535, -0.148876, 0.183137, -0.046296, 0.036396, -0.071118, -0.006828, 0.003002, 9.822204, 0.011202, -0.029116
10.100000, -0.001067, 0.001133, 9.822490, 0.008068, 0.002603, 0.008404, 0.049329, -0.000847, -0.000847, 236.834012, 0.138129, -0.150872, 0.187145, -0.046570, 0.036088, -0.071811, 0.001550, 0.000608, 9.822204, 0.006610, -0.006222
10.150000, -0.003087, 0.000818, 9.820882, 0.011275, 0.004130, 0.007487, 0.060681, -0.003666, -0.003666, 238.211423, 0.140749, -0.152844, 0.191176, -0.047028, 0.035748, -0.072414, -0.004434, 0.000608, 9.819810, 0.004773, -0.018011
10.200000, -0.005332, 0.003565, 9.820239, 0.010206, 0.004588, 0.006571, 0.069386, -0.006078, -0.006078, 237.644678, 0.143408, -0.154814, 0.195247, -0.047574, 0.035546, -0.072983, -0.006828, 0.005396, 9.819810, 0.020797, -0.031107
10.250000, -0.004793, 0.002509, 9.819982, 0.007457, 0.002603, 0.007640, 0.069555, -0.013412, -0.013412, 238.811172, 0.146096, -0.156765, 0.199339, -0.048185, 0.035314, -0.073536, -0.004434, 0.001805, 9.819810, 0.014638, -0.027966
10.300000, -0.008886, 0.003523, 9.823469, -0.001248, 0.004741, 0.008098, 0.046916, -0.016352, -0.016352, 236.776374, 0.148824, -0.158734, 0.203479, -0.048867, 0.035448, -0.074283, -0.011615, 0.004199, 9.825794, 0.020547, -0.051829
10.350000, -0.005497, 0.001056, 9.824146, 0.010511, 0.003672, 0.007487, 0.055991, -0.020536, -0.020536, 236.744101, 0.151604, -0.160699, 0.207684, -0.049546, 0.035314, -0.075071, -0.003237, -0.000589, 9.824597, 0.006158, -0.032059
10.400000, -0.004859, 0.001505, 9.823699, 0.008679, 0.006421, 0.008098, 0.059582, -0.016875, -0.016875, 237.753929, 0.154420, -0.162653, 0.211935, -0.050171, 0.035135, -0.075834, -0.004434, 0.001805, 9.823400, 0.008780, -0.028341
10.450000, -0.006758, 0.002403, 9.822802, 0.009137, 0.006421, 0.005349, 0.064365, -0.014347, -0.014347, 237.114031, 0.157788, -0.164941, 0.216988, -0.050984, 0.034981, -0.076673, -0.008025, 0.003002, 9.822204, 0.014018, -0.039422
10.500000, -0.004646, 0.000608, 9.822443, 0.002570, 0.005505, 0.006571, 0.050454, -0.013590, -0.013590, 236.914455, 0.160675, -0.166875, 0.221316, -0.051553, 0.034812, -0.077366, -0.003237, -0.000589, 9.822204, 0.003547, -0.027099
10.550000, -0.005237, 0.000608, 9.822299, 0.007151, 0.002756, 0.006571, 0.049593, -0.020473, -0.020473, 237.575761, 0.163600, -0.168804, 0.225682, -0.052200, 0.034703, -0.078050, -0.005631, 0.000608, 9.822204, 0.003548, -0.030548
10.600000, -0.004037, 0.001326, 9.822242, 0.004097, 0.006268, 0.008556, 0.040877, -0.017039, -0.017039, 239.274855, 0.166549, -0.170732, 0.230085, -0.052696, 0.034644, -0.078732, -0.003237, 0.001805, 9.822204, 0.007737, -0.023550
10.650000, -0.002121, 0.003050, 9.822219, 0.008068, 0.007948, 0.006266, 0.043992, -0.008592, -0.008592, 237.592118, 0.169498, -0.172646, 0.234510, -0.052998, 0.034540, -0.079410, -0.000844, 0.004199, 9.822204, 0.017790, -0.012373
10.700000, -0.002073, 0.001585, 9.820055, 0.008373, 0.004588, 0.008404, 0.046972, -0.009672, -0.009672, 237.566957, 0.172467, -0.174545, 0.238959, -0.053365, 0.034348, -0.079967, -0.002040, 0.000608, 9.818613, 0.009247, -0.012093
10.750000, -0.005644, 0.004589, 9.822781, 0.003944, 0.004130, 0.007335, 0.039186, -0.013446, -0.013446, 236.870265, 0.175466, -0.176464, 0.243459, -0.053801, 0.034486, -0.080677, -0.008025, 0.006592, 9.824597, 0.026769, -0.032920
10.800000, -0.001328, -0.002108, 9.824589, 0.003944, 0.004283, 0.005197, 0.029032, -0.014713, -0.014713, 237.651009, 0.178484, -0.178359, 0.248003, -0.054192, 0.034269, -0.081486, 0.001550, -0.006573, 9.825794, -0.012293, -0.007742
10.850000, 0.000399, 0.001676, 9.825312, 0.007610, 0.005047, 0.006877, 0.030878, -0.013090, -0.013090, 237.847705, 0.181503, -0.180248, 0.252588, -0.054386, 0.034154, -0.082335, 0.001550, 0.004199, 9.825794, 0.009774, 0.002327
10.900000, -0.004655, 0.001035, 9.827756, 0.009442, 0.006726, 0.008709, 0.037106, -0.009287, -0.009287, 236.931506, 0.184587, -0.182156, 0.257283, -0.054842, 0.034091, -0.083329, -0.008025, 0.000608, 9.829385, 0.006036, -0.027140
10.950000, -0.002368, 0.000779, 9.827297, 0.007915, 0.000618, 0.007793, 0.038619, -0.021020, -0.021020, 236.126047, 0.187675, -0.184044, 0.261998, -0.055297, 0.033996, -0.084291, -0.000844, 0.000608, 9.826991, 0.004542, -0.013808
11.000000, -0.003608, 0.002831, 9.827831, 0.003944, 0.003978, 0.008098, 0.030286, -0.023489, -0.023489, 238.024396, 0.190781, -0.185941, 0.266760, -0.055725, 0.034114, -0.085281, -0.004434, 0.004199, 9.828188, 0.016504, -0.021033
11.050000, -0.003385, 0.001497, 9.825173, 0.009595, 0.005352, 0.006418, 0.036936, -0.022027, -0.022027, 237.515981, 0.193918, -0.187836, 0.271569, -0.056205, 0.034102, -0.086123, -0.003237, 0.000608, 9.823400, 0.008731, -0.019743
11.100000, -0.004733, 0.000964, 9.824827, 0.002417, 0.005352, 0.005349, 0.023747, -0.021253, -0.021253, 238.833990, 0.197079, -0.189738, 0.276420, -0.056690, 0.034207, -0.086947, -0.005631, 0.000608, 9.824597, 0.005621, -0.027600
11.150000, -0.003835, 0.000032, 9.823253, 0.006846, 0.006879, 0.004433, 0.022826, -0.016116, -0.016116, 237.448008, 0.200256, -0.191635, 0.281300, -0.057114, 0.034223, -0.087681, -0.003237, -0.000589, 9.822204, 0.000189, -0.022371
11.200000, -0.004195, 0.002532, 9.823342, 0.008373, 0.005657, 0.006113, 0.027045, -0.014776, -0.014776, 237.369402, 0.203451, -0.193540, 0.286219, -0.057491, 0.034325, -0.088420, -0.004434, 0.004199, 9.823400, 0.014769, -0.024466
11.250000, -0.002902, 0.002814, 9.821941, 0.010511, 0.003825, 0.007946, 0.036704, -0.017860, -0.017860, 238.059113, 0.206670, -0.195444, 0.291176, -0.057873, 0.034340, -0.089082, -0.002040, 0.003002, 9.821007, 0.016415, -0.016930
11.300000, -0.006694, 0.000772, 9.822817, 0.003639, 0.006116, 0.007029, 0.026477, -0.016287, -0.016287, 238.119821, 0.209925, -0.197357, 0.296174, -0.058429, 0.034447, -0.089792, -0.009221, -0.000589, 9.823400, 0.004506, -0.039044
11.350000, -0.005338, 0.001392, 9.819576, 0.005930, 0.007948, 0.005502, 0.023292, -0.009450, -0.009450, 238.305494, 0.213200, -0.199275, 0.301198, -0.058832, 0.034533, -0.090324, -0.004434, 0.001805, 9.817416, 0.008122, -0.031146
11.400000, -0.001923, 0.000204, 9.820435, 0.005930, 0.005199, 0.006571, 0.019783, -0.008987, -0.008987, 238.119821, 0.216489, -0.201189, 0.306263, -0.059089, 0.034487, -0.090903, 0.000353, -0.000589, 9.821007, 0.001188, -0.011221
11.450000, -0.005584, -0.000272, 9.819342, 0.007151, 0.007490, 0.006418, 0.019515, -0.004085, -0.004085, 239.102635, 0.219802, -0.203104, 0.311352, -0.059491, 0.034504, -0.091421, -0.008025, -0.000589, 9.818613, -0.001585, -0.032583
11.500000, -0.004176, 0.003129, 9.819623, 0.010359, 0.003519, 0.007640, 0.029188, -0.009545, -0.009545, 236.801862, 0.223128, -0.205025, 0.316465, -0.059819, 0.034589, -0.091955, -0.003237, 0.005396, 9.819810, 0.018255, -0.024366
11.550000, -0.005049, 0.002334, 9.818299, 0.007762, 0.006116, 0.004586, 0.030879, -0.008138, -0.008138, 238.421404, 0.226618, -0.207027, 0.321819, -0.060225, 0.034644, -0.092434, -0.005631, 0.001805, 9.817416, 0.013623, -0.029464
11.600000, -0.003962, 0.004171, 9.817769, 0.006846, 0.006116, 0.008251, 0.030765, -0.006424, -0.006424, 237.774341, 0.229993, -0.208964, 0.326999, -0.060495, 0.034743, -0.092867, -0.003237, 0.005396, 9.817416, 0.024342, -0.023122
11.650000, -0.004245, 0.002751, 9.816839, 0.003334, 0.004130, 0.008251, 0.020711, -0.010273, -0.010273, 237.635345, 0.233374, -0.210903, 0.332183, -0.060801, 0.034884, -0.093246, -0.004434, 0.001805, 9.816220, 0.016059, -0.024777
11.700000, -0.007949, 0.001466, 9.818622, 0.006388, 0.003519, 0.006877, 0.018931, -0.017108, -0.017108, 237.635345, 0.236795, -0.212858, 0.337396, -0.061363, 0.035124, -0.093724, -0.010418, 0.000608, 9.819810, 0.008552, -0.046386
11.750000, -0.006558, 0.003105, 9.820053, 0.005013, 0.002450, 0.009473, 0.014323, -0.025746, -0.025746, 237.729306, 0.240236, -0.214834, 0.342636, -0.061858, 0.035479, -0.094281, -0.005631, 0.004199, 9.821007, 0.018119, -0.038264
11.800000, -0.006002, 0.003043, 9.819189, 0.006541, 0.003978, 0.005197, 0.014092, -0.029486, -0.029486, 238.251949, 0.243707, -0.216831, 0.347906, -0.062357, 0.035837, -0.094790, -0.005631, 0.003002, 9.818613, 0.017758, -0.035021
11.850000, -0.005061, 0.003737, 9.819562, 0.005930, 0.003978, 0.006877, 0.012570, -0.032553, -0.032553, 238.119821, 0.247201, -0.218850, 0.353204, -0.062809, 0.036226, -0.095320, -0.004434, 0.004199, 9.819810, 0.021802, -0.029531
11.900000, -0.004685, 0.002578, 9.821865, 0.005930, 0.005505, 0.008862, 0.010684, -0.031170, -0.031170, 237.719217, 0.250719, -0.220885, 0.358541, -0.063256, 0.036558, -0.095978, -0.004434, 0.001805, 9.823400, 0.015037, -0.027330
11.950000, -0.005253, 0.001396, 9.820632, 0.004097, 0.003825, 0.006571, 0.003579, -0.034580, -0.034580, 236.557496, 0.254263, -0.222940, 0.363904, -0.063756, 0.036926, -0.096566, -0.005631, 0.000608, 9.819810, 0.008144, -0.030645
12.000000, -0.006916, 0.000923, 9.817266, 0.004861, 0.001534, 0.007793, -0.001164, -0.044522, -0.044522, 238.035837, 0.257882, -0.225045, 0.369337, -0.064409, 0.037414, -0.096972, -0.008025, 0.000608, 9.815023, 0.005389, -0.040362
12.050000, -0.005427, 0.003607, 9.818074, 0.008526, 0.003214, 0.005808, 0.005350, -0.048608, -0.048608, 237.809561, 0.261534, -0.227184, 0.374801, -0.064979, 0.037953, -0.097423, -0.004434, 0.005396, 9.818613, 0.021047, -0.031669
12.100000, -0.004831, 0.006834, 9.817680, 0.008679, 0.003978, 0.004739, 0.013233, -0.050058, -0.050058, 237.610127, 0.265177, -0.229339, 0.380237, -0.065471, 0.038565, -0.097849, -0.004434, 0.008986, 9.817416, 0.039884, -0.028195
12.150000, -0.008183, 0.004535, 9.819676, 0.005472, 0.005199, 0.004280, 0.011102, -0.049555, -0.049555, 238.775766, 0.268870, -0.231531, 0.385713, -0.066175, 0.039184, -0.098385, -0.010418, 0.003002, 9.821007, 0.026460, -0.047748
12.200000, -0.010960, 0.002179, 9.821911, 0.009290, 0.005505, 0.005960, 0.018270, -0.049483, -0.049483, 236.738076, 0.272614, -0.233746, 0.391218, -0.067113, 0.039716, -0.099044, -0.012812, 0.000608, 9.823400, 0.012710, -0.063938
12.250000, -0.007763, 0.003391, 9.827113, 0.003486, 0.005505, 0.006418, 0.010029, -0.048064, -0.048064, 236.978429, 0.276402, -0.235999, 0.396802, -0.067814, 0.040271, -0.099995, -0.005631, 0.004199, 9.830581, 0.019769, -0.045260
12.300000, -0.010074, 0.001721, 9.827758, 0.006693, 0.005657, 0.005808, 0.010208, -0.047343, -0.047343, 237.559029, 0.280240, -0.238281, 0.402439, -0.068668, 0.040812, -0.100980, -0.011615, 0.000608, 9.828188, 0.010035, -0.058732
12.350000, -0.009562, 0.003926, 9.825143, 0.009748, 0.004130, 0.006266, 0.019428, -0.050536, -0.050536, 237.891850, 0.284116, -0.240591, 0.408106, -0.069503, 0.041382, -0.101819, -0.009221, 0.005396, 9.823400, 0.022893, -0.055764
12.400000, -0.010794, 0.004090, 9.826970, 0.006541, 0.004894, 0.005197, 0.019540, -0.052017, -0.052017, 237.376945, 0.288042, -0.242936, 0.413826, -0.070403, 0.042003, -0.102759, -0.011615, 0.004199, 9.828188, 0.023844, -0.062934
12.450000, -0.008414, 0.002719, 9.825546, 0.005930, 0.001992, 0.008556, 0.017441, -0.060077, -0.060077, 237.465730, 0.292015, -0.245307, 0.419589, -0.071285, 0.042547, -0.103619, -0.006828, 0.001805, 9.824597, 0.015854, -0.049066
12.500000, -0.006744, 0.002889, 9.824259, 0.003181, 0.001840, 0.004433, 0.008279, -0.067183, -0.067183, 238.950827, 0.296068, -0.247737, 0.425447, -0.072102, 0.043164, -0.104415, -0.005631, 0.003002, 9.823400, 0.016847, -0.039333
12.550000, -0.005358, 0.003675, 9.825180, 0.008221, 0.003825, 0.007182, 0.013529, -0.067812, -0.067812, 238.071373, 0.300163, -0.250199, 0.431357, -0.072864, 0.043737, -0.105263, -0.004434, 0.004199, 9.825794, 0.021429, -0.031246
12.600000, -0.005522, 0.001117, 9.824112, 0.005777, 0.003367, 0.006266, 0.010819, -0.069576, -0.069576, 238.000490, 0.304278, -0.252667, 0.437265, -0.073704, 0.044221, -0.106046, -0.005631, -0.000589, 9.823400, 0.006513, -0.032204
12.650000, -0.005587, 0.005838, 9.825839, 0.010359, 0.007032, 0.006571, 0.022498, -0.061410, -0.061410, 237.358914, 0.308420, -0.255165, 0.443215, -0.074399, 0.044792, -0.106923, -0.005631, 0.008986, 9.826991, 0.034044, -0.032580
12.700000, -0.006332, 0.005573, 9.827967, 0.004555, 0.004436, 0.007335, 0.017838, -0.060977, -0.060977, 239.026913, 0.312650, -0.257727, 0.449291, -0.075119, 0.045414, -0.107929, -0.006828, 0.005396, 9.829385, 0.032488, -0.036912
12.750000, -0.008065, 0.004748, 9.827381, 0.002723, 0.003367, 0.010847, 0.008351, -0.064094, -0.064094, 236.823241, 0.316891, -0.260311, 0.455370, -0.075915, 0.046137, -0.108895, -0.009221, 0.004199, 9.826991, 0.027683, -0.047023
12.800000, -0.008759, 0.002264, 9.825711, 0.005930, 0.006574, 0.007946, 0.007051, -0.058730, -0.058730, 237.533144, 0.321174, -0.262922, 0.461484, -0.076767, 0.046745, -0.109765, -0.009221, 0.000608, 9.824597, 0.013203, -0.051076
12.850000, -0.008318, 0.000553, 9.825761, 0.010053, 0.002298, 0.007029, 0.016052, -0.064888, -0.064888, 238.333676, 0.325510, -0.265552, 0.467640, -0.077743, 0.047219, -0.110638, -0.008025, -0.000589, 9.825794, 0.003222, -0.048506
12.900000, -0.007424, 0.001304, 9.825781, 0.002112, 0.005505, 0.006877, 0.003618, -0.061649, -0.061649, 237.929170, 0.329891, -0.268219, 0.473851, -0.078566, 0.047785, -0.111513, -0.006828, 0.001805, 9.825794, 0.007604, -0.043291
12.950000, -0.007784, -0.000550, 9.827225, 0.003028, 0.002909, 0.007487, -0.006254, -0.065637, -0.065637, 237.301700, 0.334321, -0.270917, 0.480114, -0.079443, 0.048374, -0.112467, -0.008025, -0.001785, 9.828188, -0.003205, -0.045385
13.000000, -0.005056, 0.000863, 9.826366, 0.008221, 0.004741, 0.009320, -0.001001, -0.063225, -0.063225, 236.340728, 0.338818, -0.273663, 0.486472, -0.080162, 0.048898, -0.113381, -0.003237, 0.001805, 9.825794, 0.005033, -0.029481
13.050000, -0.004683, 0.001428, 9.831050, 0.003792, 0.005199, 0.009167, -0.007618, -0.059517, -0.059517, 238.363544, 0.343353, -0.276446, 0.492912, -0.080783, 0.049473, -0.114557, -0.004434, 0.001805, 9.834172, 0.008324, -0.027292
13.100000, -0.006688, 0.002372, 9.826460, 0.003028, 0.002145, 0.003822, -0.015309, -0.064963, -0.064963, 237.060031, 0.347891, -0.279254, 0.499341, -0.081470, 0.050238, -0.115469, -0.008025, 0.003002, 9.823400, 0.013833, -0.038996
13.150000, -0.003899, 0.003468, 9.822470, 0.005624, 0.003519, 0.004433, -0.014983, -0.065073, -0.065073, 238.057959, 0.352465, -0.282108, 0.505820, -0.081996, 0.050970, -0.116162, -0.002040, 0.004199, 9.819810, 0.020230, -0.022746
13.200000, -0.005656, 0.003906, 9.823028, 0.003639, 0.002603, 0.009320, -0.019652, -0.068246, -0.068246, 238.363544, 0.357069, -0.285010, 0.512331, -0.082594, 0.051827, -0.116885, -0.006828, 0.004199, 9.823400, 0.022786, -0.032993
13.250000, -0.006359, 0.002646, 9.818943, 0.003334, 0.003519, 0.006571, -0.025209, -0.068957, -0.068957, 237.422032, 0.361700, -0.287955, 0.518852, -0.083238, 0.052693, -0.117380, -0.006828, 0.001805, 9.816220, 0.015438, -0.037108
13.300000, -0.005922, 0.002859, 9.820899, 0.005319, 0.004588, 0.006266, -0.024877, -0.066500, -0.066500, 237.558274, 0.366367, -0.290948, 0.525413, -0.083838, 0.053541, -0.117983, -0.005631, 0.003002, 9.822204, 0.016682, -0.034551
13.350000, -0.002875, 0.002945, 9.820246, 0.008221, 0.004588, 0.008862, -0.016721, -0.062807, -0.062807, 238.094558, 0.371051, -0.293971, 0.531996, -0.084304, 0.054218, -0.118550, -0.000844, 0.003002, 9.819810, 0.017182, -0.016775
13.400000, -0.003092, 0.005851, 9.817830, 0.007151, 0.003214, 0.006877, -0.010643, -0.062996, -0.062996, 238.950827, 0.375758, -0.297040, 0.538603, -0.084727, 0.054989, -0.118984, -0.003237, 0.007789, 9.816220, 0.034148, -0.018047
13.450000, -0.003897, 0.001987, 9.815428, 0.003792, 0.004130, 0.008251, -0.015479, -0.060963, -0.060963, 237.417104, 0.381290, -0.300664, 0.546321, -0.085350, 0.055737, -0.119334, -0.004434, -0.000589, 9.813826, 0.011601, -0.022751
13.500000, -0.003501, 0.000442, 9.816621, 0.009900, 0.004588, 0.006113, -0.004353, -0.057583, -0.057583, 239.026913, 0.386128, -0.303828, 0.553046, -0.085948, 0.056193, -0.119704, -0.003237, -0.000589, 9.817416, 0.002579, -0.020436
13.550000, -0.001907, -0.000176, 9.813508, -0.000026, 0.003978, 0.006877, -0.020623, -0.055274, -0.055274, 236.279513, 0.390969, -0.307011, 0.559753, -0.086386, 0.056691, -0.119900, -0.000844, -0.000589, 9.811432, -0.001030, -0.011132
13.600000, -0.000551, -0.001142, 9.814417, 0.000279, 0.005963, 0.008098, -0.035234, -0.047157, -0.047157, 237.988785, 0.395788, -0.310200, 0.566432, -0.086646, 0.057177, -0.120145, 0.000353, -0.001785, 9.815023, -0.006666, -0.003216
13.650000, -0.000727, -0.000810, 9.812626, 0.008221, 0.004741, 0.008098, -0.027474, -0.042833, -0.042833, 237.704469, 0.400611, -0.313403, 0.573101, -0.086908, 0.057598, -0.120290, -0.000844, -0.000589, 9.811432, -0.004729, -0.004242
13.700000, -0.001515, 0.002195, 9.813346, 0.005472, 0.001992, 0.007793, -0.026207, -0.046351, -0.046351, 237.380757, 0.405447, -0.316644, 0.579782, -0.087153, 0.058191, -0.120475, -0.002040, 0.004199, 9.813826, 0.012817, -0.008845
13.750000, -0.003985, 0.001961, 9.810043, 0.007915, 0.005810, 0.007946, -0.018546, -0.040453, -0.040453, 237.294775, 0.410306, -0.319915, 0.586457, -0.087512, 0.058754, -0.120478, -0.005631, 0.001805, 9.807842, 0.011454, -0.023272
13.800000, -0.002818, 0.002586, 9.810877, 0.003944, 0.003825, 0.008251, -0.021624, -0.039700, -0.039700, 236.830371, 0.415181, -0.323222, 0.593143, -0.087776, 0.059334, -0.120526, -0.002040, 0.003002, 9.811432, 0.015100, -0.016458
13.850000, -0.001633, 0.001399, 9.807620, 0.011275, 0.007185, 0.006724, -0.005449, -0.029513, -0.029513, 236.918630, 0.420072, -0.326539, 0.599819, -0.088020, 0.059642, -0.120394, -0.000844, 0.000608, 9.805448, 0.008174, -0.009542
13.900000, -0.002596, -0.000512, 9.812780, 0.007151, 0.007185, 0.007182, -0.002205, -0.020447, -0.020447, 238.305494, 0.424977, -0.329861, 0.606508, -0.088309, 0.059817, -0.120548, -0.003237, -0.001785, 9.816220, -0.002987, -0.015156
13.950000, -0.002263, 0.000160, 9.812689, 0.006388, 0.006879, 0.004739, -0.000937, -0.012706, -0.012706, 237.884678, 0.429895, -0.333194, 0.613212, -0.088508, 0.059964, -0.120697, -0.002040, 0.000608, 9.812629, 0.000936, -0.013211
14.000000, -0.002847, 0.002583, 9.814089, 0.008221, 0.001687, 0.009473, 0.006156, -0.019565, -0.019565, 237.816180, 0.434856, -0.336563, 0.619968, -0.088754, 0.060222, -0.120925, -0.003237, 0.004199, 9.815023, 0.015082, -0.016624
14.050000, -0.006672, 0.003553, 9.810341, 0.013413, 0.005657, 0.005960, 0.026933, -0.017042, -0.017042, 236.400281, 0.439879, -0.339963, 0.626758, -0.089240, 0.060460, -0.120944, -0.009221, 0.004199, 9.807842, 0.020748, -0.038966
14.100000, -0.008202, 0.000350, 9.811714, 0.007457, 0.004130, 0.008251, 0.028958, -0.019486, -0.019486, 237.432343, 0.444886, -0.343328, 0.633475, -0.089918, 0.060588, -0.121039, -0.009221, -0.001785, 9.812629, 0.002042, -0.047893
14.150000, -0.006659, -0.002368, 9.810827, 0.004555, 0.001381, 0.008251, 0.021879, -0.028445, -0.028445, 238.442868, 0.449930, -0.346691, 0.640189, -0.090639, 0.060645, -0.121084, -0.005631, -0.004179, 9.810235, -0.013827, -0.038890
14.200000, -0.007478, -0.000582, 9.811908, 0.008373, 0.005199, 0.006113, 0.026124, -0.027002, -0.027002, 237.481903, 0.455014, -0.350063, 0.646909, -0.091355, 0.060768, -0.121190, -0.008025, 0.000608, 9.812629, -0.003399, -0.043670
14.250000, -0.006370, 0.001568, 9.813777, 0.006082, 0.006116, 0.006877, 0.024830, -0.022801, -0.022801, 237.852880, 0.460122, -0.353445, 0.653641, -0.091916, 0.060948, -0.121399, -0.005631, 0.003002, 9.815023, 0.009156, -0.037190
14.300000, -0.005927, -0.000444, 9.814524, 0.002875, 0.004130, 0.007946, 0.014210, -0.024025, -0.024025, 237.651009, 0.465267, -0.356839, 0.660395, -0.092471, 0.061112, -0.121650, -0.005631, -0.001785, 9.815023, -0.002592, -0.034598
14.350000, -0.004313, -0.001249, 9.811233, 0.008831, 0.006421, 0.007182, 0.019772, -0.018414, -0.018414, 238.175784, 0.470434, -0.360227, 0.667145, -0.092959, 0.061117, -0.121718, -0.003237, -0.001785, 9.809039, -0.007293, -0.025187
14.400000, -0.003668, -0.000135, 9.812789, 0.005930, 0.004588, 0.007182, 0.017634, -0.017818, -0.017818, 238.327524, 0.475627, -0.363623, 0.673913, -0.093367, 0.061168, -0.121873, -0.003237, 0.000608, 9.813826, -0.000786, -0.021415
14.450000, -0.003409, 0.001029, 9.814129, 0.014176, 0.005047, 0.007335, 0.037972, -0.015949, -0.015949, 237.893744, 0.480838, -0.367007, 0.680685, -0.093817, 0.061094, -0.122101, -0.003237, 0.001805, 9.815023, 0.006008, -0.019904
14.500000, -0.004742, 0.000059, 9.813947, 0.006082, 0.004436, 0.007335, 0.034820, -0.016431, -0.016431, 238.185332, 0.486180, -0.370452, 0.687598, -0.094356, 0.061040, -0.122324, -0.005631, -0.000589, 9.813826, 0.000342, -0.027687
14.550000, -0.005994, 0.001106, 9.817465, 0.008526, 0.001840, 0.007335, 0.038738, -0.024337, -0.024337, 237.524609, 0.491477, -0.373847, 0.694431, -0.094998, 0.061082, -0.122738, -0.006828, 0.001805, 9.819810, 0.006457, -0.034979
14.600000, -0.004340, 0.000089, 9.816000, 0.006388, 0.005810, 0.010695, 0.036160, -0.020437, -0.020437, 238.194671, 0.496794, -0.377232, 0.701269, -0.095546, 0.061028, -0.123071, -0.003237, -0.000589, 9.815023, 0.000522, -0.025331
14.650000, -0.006551, 0.001119, 9.815413, 0.007304, 0.004588, 0.006266, 0.036548, -0.021044, -0.021044, 237.651009, 0.502142, -0.380619, 0.708114, -0.096174, 0.061087, -0.123371, -0.008025, 0.001805, 9.815023, 0.006531, -0.038238
14.700000, -0.005999, -0.000624, 9.816615, 0.007457, 0.003519, 0.009015, 0.036468, -0.024248, -0.024248, 237.532932, 0.507539, -0.384009, 0.714995, -0.096855, 0.061066, -0.123738, -0.005631, -0.001785, 9.817416, -0.003641, -0.035013
14.750000, -0.002188, 0.000115, 9.815660, 0.000585, 0.005505, 0.006571, 0.018379, -0.020323, -0.020323, 238.291695, 0.512941, -0.387399, 0.721885, -0.097211, 0.061091, -0.124052, 0.000353, 0.000608, 9.815023, 0.000674, -0.012770
14.800000, -0.002099, 0.003283, 9.814559, 0.009748, 0.007032, 0.007182, 0.027261, -0.012582, -0.012582, 236.834012, 0.518348, -0.390790, 0.728781, -0.097451, 0.061152, -0.124304, -0.002040, 0.005396, 9.813826, 0.019168, -0.012256
14.850000, -0.002782, 0.004551, 9.815555, 0.012038, 0.005047, 0.006571, 0.042081, -0.010977, -0.010977, 236.185815, 0.523783, -0.394186, 0.735708, -0.097749, 0.061166, -0.124613, -0.003237, 0.005396, 9.816220, 0.026563, -0.016240
14.900000, -0.003055, 0.000031, 9.817390, 0.006388, 0.004588, 0.006571, 0.038803, -0.010840, -0.010840, 237.201504, 0.529247, -0.397569, 0.742662, -0.098176, 0.061002, -0.125023, -0.003237, -0.002982, 9.818613, 0.000181, -0.017831
14.950000, -0.003164, 0.002532, 9.818124, 0.009137, 0.005352, 0.005349, 0.044035, -0.008757, -0.008757, 237.700114, 0.534750, -0.400961, 0.749668, -0.098545, 0.060906, -0.125476, -0.003237, 0.004199, 9.818613, 0.014774, -0.018467
15.000000, -0.003208, 0.004250, 9.818417, 0.006541, 0.004588, 0.009778, 0.042656, -0.008901, -0.008901, 236.674966, 0.540283, -0.404364, 0.756720, -0.098860, 0.060904, -0.125946, -0.003237, 0.005396, 9.818613, 0.024801, -0.018721
15.050000, -0.006098, 0.003501, 9.819971, 0.003639, 0.004436, 0.010542, 0.033311, -0.010724, -0.010724, 237.988785, 0.545812, -0.407759, 0.763763, -0.099298, 0.061037, -0.126500, -0.008025, 0.003002, 9.821007, 0.020428, -0.035580
15.100000, -0.005100, 0.002483, 9.820593, 0.006541, 0.007032, 0.006724, 0.031874, -0.005166, -0.005166, 238.143020, 0.551356, -0.411151, 0.770836, -0.099667, 0.061076, -0.127088, -0.004434, 0.001805, 9.821007, 0.014489, -0.029753
15.150000, -0.006137, 0.001358, 9.819405, 0.006999, 0.005963, 0.009320, 0.031220, -0.003378, -0.003378, 236.247974, 0.556917, -0.414538, 0.777924, -0.100100, 0.061089, -0.127609, -0.006828, 0.000608, 9.818613, 0.007926, -0.035806
15.200000, -0.001525, 0.000908, 9.817494, 0.001501, 0.005963, 0.007029, 0.015776, 0.000189, 0.000189, 236.371690, 0.562494, -0.417932, 0.785056, -0.100224, 0.061050, -0.128026, 0.001550, 0.000608, 9.816220, 0.005301, -0.008898
15.250000, -0.003270, 0.002164, 9.819602, 0.004861, 0.005047, 0.007487, 0.010908, 0.000275, 0.000275, 236.942012, 0.568068, -0.421329, 0.792204, -0.100365, 0.061160, -0.128559, -0.004434, 0.003002, 9.821007, 0.012629, -0.019082
15.300000, -0.004687, 0.001231, 9.819009, 0.002112, 0.007490, 0.008862, -0.001287, 0.006161, 0.006161, 237.906614, 0.573646, -0.424737, 0.799378, -0.100492, 0.061337, -0.129059, -0.005631, 0.000608, 9.818613, 0.007181, -0.027348
15.350000, -0.003817, 0.002293, 9.819489, 0.005319, 0.002756, 0.008404, -0.003583, -0.000662, -0.000662, 237.584689, 0.579226, -0.428158, 0.806577, -0.100588, 0.061590, -0.129585, -0.003237, 0.003002, 9.819810, 0.013382, -0.022272
15.400000, -0.004905, 0.002718, 9.822554, 0.010206, 0.004130, 0.006113, 0.007481, -0.003867, -0.003867, 237.314218, 0.584819, -0.431592, 0.813817, -0.100805, 0.061824, -0.130281, -0.005631, 0.003002, 9.824597, 0.015857, -0.028614
15.450000, -0.003186, 0.002170, 9.820190, 0.010664, 0.005047, 0.006266, 0.018722, -0.003728, -0.003728, 236.126047, 0.590427, -0.435026, 0.821090, -0.101015, 0.061890, -0.130846, -0.002040, 0.001805, 9.818613, 0.012663, -0.018591
15.500000, -0.004653, 0.001233, 9.819962, 0.007457, 0.003978, 0.005044, 0.020196, -0.007115, -0.007115, 237.626141, 0.596096, -0.438487, 0.828442, -0.101358, 0.061963, -0.131402, -0.005631, 0.000608, 9.819810, 0.007195, -0.027149
15.550000, -0.004522, 0.000858, 9.817716, 0.006082, 0.008712, 0.006113, 0.017716, 0.002301, 0.002301, 237.281212, 0.601746, -0.441930, 0.835775, -0.101616, 0.061985, -0.131830, -0.004434, 0.000608, 9.816220, 0.005008, -0.026389
15.600000, -0.005187, 0.001426, 9.818254, 0.011122, 0.006421, 0.008556, 0.028992, 0.004569, 0.004569, 237.370026, 0.607415, -0.445370, 0.843134, -0.101928, 0.061952, -0.132289, -0.005631, 0.001805, 9.818613, 0.008323, -0.030271
15.650000, -0.004017, 0.000217, 9.819906, 0.010359, 0.008254, 0.009167, 0.036818, 0.011936, 0.011936, 238.614476, 0.613093, -0.448788, 0.850519, -0.102203, 0.061727, -0.132838, -0.003237, -0.000589, 9.821007, 0.001268, -0.023439
15.700000, -0.005704, 0.000452, 9.818412, 0.008984, 0.006879, 0.004891, 0.040415, 0.014273, 0.014273, 238.297170, 0.618784, -0.452191, 0.857918, -0.102548, 0.061522, -0.133304, -0.006828, 0.000608, 9.817416, 0.002637, -0.033283
15.750000, -0.006378, -0.000891, 9.822841, 0.007304, 0.004436, 0.006113, 0.038598, 0.009529, 0.009529, 237.882665, 0.624512, -0.455588, 0.865374, -0.102995, 0.061314, -0.134017, -0.006828, -0.001785, 9.825794, -0.005194, -0.037203
15.800000, -0.003776, 0.000009, 9.822459, 0.008984, 0.003367, 0.007335, 0.041634, 0.003301, 0.003301, 237.920532, 0.630251, -0.458966, 0.872860, -0.103357, 0.061077, -0.134707, -0.002040, 0.000608, 9.822204, 0.000051, -0.022023
15.850000, -0.003453, 0.001805, 9.822306, 0.002265, 0.004588, 0.007946, 0.027291, 0.000844, 0.000844, 236.249254, 0.636034, -0.462369, 0.880428, -0.103599, 0.061041, -0.135393, -0.003237, 0.003002, 9.822204, 0.010527, -0.020140
15.900000, -0.004042, 0.002523, 9.821526, 0.006999, 0.003825, 0.009320, 0.026832, -0.003771, -0.003771, 238.341610, 0.641800, -0.465756, 0.887986, -0.103880, 0.061084, -0.136032, -0.004434, 0.003002, 9.821007, 0.014718, -0.023577
15.950000, -0.004277, 0.000656, 9.821215, 0.002875, 0.008254, 0.005502, 0.014629, 0.003540, 0.003540, 236.826781, 0.647584, -0.469148, 0.895587, -0.104107, 0.061108, -0.136655, -0.004434, -0.000589, 9.821007, 0.003827, -0.024952
16.000000, -0.004371, 0.002064, 9.821808, 0.008221, 0.008406, 0.005502, 0.018088, 0.010587, 0.010587, 238.896793, 0.653424, -0.472571, 0.903292, -0.104259, 0.061136, -0.137316, -0.004434, 0.003002, 9.822204, 0.012038, -0.025500
16.050000, -0.002255, 0.001190, 9.823482, 0.008221, 0.005505, 0.005349, 0.020891, 0.010233, 0.010233, 238.130193, 0.659256, -0.475978, 0.911026, -0.104354, 0.061038, -0.138069, -0.000844, 0.000608, 9.824597, 0.006943, -0.013151
16.100000, -0.004280, 0.001559, 9.821997, 0.000890, 0.002603, 0.005197, 0.004172, 0.001264, 0.001264, 238.115348, 0.665067, -0.479382, 0.918752, -0.104520, 0.061199, -0.138735, -0.005631, 0.001805, 9.821007, 0.009095, -0.024970
16.150000, -0.004373, 0.002425, 9.821403, 0.003334, 0.005352, 0.009015, -0.004432, 0.000135, 0.000135, 238.092765, 0.670873, -0.482800, 0.926499, -0.104628, 0.061477, -0.139368, -0.004434, 0.003002, 9.821007, 0.014146, -0.025509
16.200000, -0.002255, 0.002771, 9.821165, 0.010664, 0.005199, 0.005655, 0.007244, -0.000467, -0.000467, 238.348068, 0.676679, -0.486220, 0.934277, -0.104692, 0.061618, -0.139987, -0.000844, 0.003002, 9.821007, 0.016166, -0.013157
16.250000, -0.004999, 0.002910, 9.823943, 0.006082, 0.002909, 0.009167, 0.005989, -0.008327, -0.008327, 237.834141, 0.682496, -0.489654, 0.942092, -0.104937, 0.061897, -0.140759, -0.006828, 0.003002, 9.825794, 0.016969, -0.029154
16.300000, -0.003224, 0.000811, 9.823617, 0.007151, 0.006421, 0.006418, 0.006780, -0.005576, -0.005576, 238.355894, 0.688398, -0.493134, 0.950049, -0.105145, 0.062006, -0.141522, -0.002040, -0.000589, 9.823400, 0.004728, -0.018803
16.350000, -0.003232, -0.000029, 9.823487, 0.008373, 0.003978, 0.007793, 0.010380, -0.009551, -0.009551, 238.153087, 0.694459, -0.496699, 0.958240, -0.105437, 0.062067, -0.142296, -0.003237, -0.000589, 9.823400, -0.000169, -0.018850
16.400000, -0.003953, 0.002508, 9.822717, -0.000179, 0.002450, 0.006571, -0.007888, -0.017619, -0.017619, 236.648320, 0.700328, -0.500176, 0.966196, -0.105650, 0.062455, -0.143002, -0.004434, 0.004199, 9.822204, 0.014627, -0.023059
16.450000, -0.004242, 0.002086, 9.822409, 0.003792, 0.005505, 0.009167, -0.014386, -0.017129, -0.017129, 238.156030, 0.706211, -0.503679, 0.974193, -0.105851, 0.062882, -0.143691, -0.004434, 0.001805, 9.822204, 0.012168, -0.024743
16.500000, -0.002203, 0.004072, 9.825876, 0.001196, 0.003214, 0.006418, -0.026342, -0.021883, -0.021883, 237.475110, 0.712128, -0.507242, 0.982297, -0.105876, 0.063465, -0.144578, -0.000844, 0.005396, 9.828188, 0.023743, -0.012845
16.550000, -0.001387, 0.002712, 9.822955, 0.008068, 0.003825, 0.008709, -0.019634, -0.024283, -0.024283, 237.822341, 0.718048, -0.510825, 0.990432, -0.105957, 0.063918, -0.145301, -0.000844, 0.001805, 9.821007, 0.015817, -0.008092
16.600000, -0.002497, 0.003604, 9.823222, 0.005319, 0.005505, 0.008556, -0.020224, -0.022486, -0.022486, 238.194671, 0.723930, -0.514412, 0.998549, -0.106045, 0.064438, -0.146034, -0.003237, 0.004199, 9.823400, 0.021020, -0.014566
16.650000, -0.006532, 0.003243, 9.821175, 0.001806, 0.006726, 0.006113, -0.030119, -0.019316, -0.019316, 237.802545, 0.729822, -0.518038, 1.006691, -0.106258, 0.065122, -0.146653, -0.009221, 0.003002, 9.819810, 0.018917, -0.038106
16.700000, -0.005273, 0.005252, 9.823228, 0.002570, 0.002145, 0.009931, -0.036237, -0.028036, -0.028036, 236.785282, 0.735729, -0.521721, 1.014888, -0.106390, 0.065959, -0.147386, -0.004434, 0.006592, 9.824597, 0.030636, -0.030757
16.750000, -0.004770, 0.003184, 9.822614, 0.005166, 0.000923, 0.007640, -0.035722, -0.039133, -0.039133, 239.388214, 0.741677, -0.525460, 1.023157, -0.106655, 0.066739, -0.148088, -0.004434, 0.001805, 9.822204, 0.018572, -0.027822
16.800000, -0.004568, 0.003075, 9.823086, 0.002570, 0.007185, 0.007335, -0.042020, -0.032683, -0.032683, 237.499293, 0.747611, -0.529230, 1.031437, -0.106828, 0.067522, -0.148814, -0.004434, 0.003002, 9.823400, 0.017934, -0.026646
16.850000, -0.006642, 0.002313, 9.823993, 0.007915, 0.002298, 0.008404, -0.033836, -0.040554, -0.040554, 240.187433, 0.753568, -0.533039, 1.039753, -0.107227, 0.068304, -0.149589, -0.008025, 0.001805, 9.824597, 0.013489, -0.038738
16.900000, -0.006753, 0.001290, 9.825792, 0.011580, 0.002603, 0.005349, -0.016853, -0.047071, -0.047071, 239.101173, 0.759561, -0.536878, 1.048120, -0.107801, 0.068936, -0.150464, -0.006828, 0.000608, 9.826991, 0.007523, -0.039381
16.950000, -0.003926, 0.000881, 9.822203, 0.006082, 0.000771, 0.005808, -0.015820, -0.056709, -0.056709, 237.028150, 0.765574, -0.540743, 1.056506, -0.108336, 0.069506, -0.151140, -0.002040, 0.000608, 9.819810, 0.005139, -0.022900
17.000000, -0.004231, -0.002155, 9.822921, 0.005472, 0.005352, 0.007946, -0.017743, -0.053517, -0.053517, 238.356952, 0.771679, -0.544663, 1.065013, -0.108946, 0.069945, -0.151861, -0.004434, -0.004179, 9.823400, -0.012570, -0.024677
17.050000, -0.003635, -0.000497, 9.819618, 0.006693, 0.005047, 0.006877, -0.015548, -0.051031, -0.051031, 238.491290, 0.777772, -0.548586, 1.073490, -0.109465, 0.070411, -0.152395, -0.003237, 0.000608, 9.817416, -0.002900, -0.021208
17.100000, -0.004114, -0.000552, 9.824042, 0.005319, 0.003672, 0.005808, -0.017147, -0.052496, -0.052496, 238.971544, 0.783897, -0.552538, 1.082018, -0.110014, 0.070908, -0.153174, -0.004434, -0.000589, 9.826991, -0.003219, -0.023996
17.150000, -0.005024, 0.002298, 9.822939, 0.006541, 0.001840, 0.004891, -0.014109, -0.059024, -0.059024, 238.873933, 0.790051, -0.556529, 1.090580, -0.110590, 0.071574, -0.153892, -0.005631, 0.004199, 9.822204, 0.013406, -0.029306
17.200000, -0.003952, 0.003439, 9.819625, 0.002112, 0.004130, 0.005960, -0.022462, -0.058441, -0.058441, 239.388214, 0.796226, -0.560564, 1.099165, -0.111036, 0.072326, -0.154425, -0.003237, 0.004199, 9.817416, 0.020063, -0.023060
17.250000, -0.002087, 0.003895, 9.820454, 0.010053, 0.003214, 0.005655, -0.008818, -0.059417, -0.059417, 239.269569, 0.802421, -0.564627, 1.107780, -0.111458, 0.072938, -0.155005, -0.000844, 0.004199, 9.821007, 0.022723, -0.012176
17.300000, -0.004213, 0.001923, 9.820786, 0.005319, 0.003519, 0.006877, -0.009510, -0.060299, -0.060299, 239.818744, 0.808646, -0.568718, 1.116420, -0.112042, 0.073528, -0.155602, -0.005631, 0.000608, 9.821007, 0.011218, -0.024581
17.350000, -0.004346, 0.001852, 9.822355, 0.008526, 0.003825, 0.004128, -0.001619, -0.060259, -0.060259, 238.823524, 0.814929, -0.572851, 1.125129, -0.112676, 0.074055, -0.156288, -0.004434, 0.001805, 9.823400, 0.010804, -0.025350
17.400000, -0.005835, -0.001048, 9.823700, 0.001196, 0.002298, 0.008251, -0.014976, -0.064818, -0.064818, 237.651009, 0.821243, -0.577006, 1.133864, -0.113434, 0.074618, -0.157048, -0.006828, -0.002982, 9.824597, -0.006115, -0.034032
17.450000, -0.007149, -0.001491, 9.823520, 0.005624, 0.002756, 0.006571, -0.015762, -0.068305, -0.068305, 238.105069, 0.827612, -0.581199, 1.142644, -0.114291, 0.075223, -0.157797, -0.008025, -0.001785, 9.823400, -0.008694, -0.041695
17.500000, -0.006238, -0.000949, 9.822730, 0.010053, 0.004130, 0.005044, -0.004492, -0.067416, -0.067416, 238.082189, 0.834063, -0.585441, 1.151512, -0.115144, 0.075733, -0.158507, -0.005631, -0.000589, 9.822204, -0.005538, -0.036386
17.550000, -0.004438, 0.004294, 9.820260, 0.003639, 0.004894, 0.007029, -0.008790, -0.063696, -0.063696, 237.524609, 0.840537, -0.589729, 1.160408, -0.115705, 0.076457, -0.159079, -0.003237, 0.007789, 9.818613, 0.025051, -0.025891
17.600000, -0.003717, 0.002082, 9.821426, 0.004250, 0.002756, 0.006571, -0.012012, -0.065499, -0.065499, 237.871740, 0.847009, -0.594026, 1.169292, -0.116291, 0.077088, -0.159713, -0.003237, 0.000608, 9.822204, 0.012148, -0.021687
17.650000, -0.003429, 0.003352, 9.819738, 0.009900, -0.001062, 0.006113, 0.000609, -0.077038, -0.077038, 238.392498, 0.853536, -0.598367, 1.178220, -0.116985, 0.077726, -0.160254, -0.003237, 0.004199, 9.818613, 0.019559, -0.020009
17.700000, -0.003314, 0.002424, 9.818345, 0.001959, 0.000160, 0.007487, -0.009114, -0.084264, -0.084264, 238.233834, 0.860096, -0.602744, 1.187163, -0.117709, 0.078431, -0.160717, -0.003237, 0.001805, 9.817416, 0.014145, -0.019340
17.750000, -0.005422, -0.000102, 9.819224, 0.006235, -0.001673, 0.005808, -0.007807, -0.096538, -0.096538, 237.574601, 0.866705, -0.607151, 1.196116, -0.118710, 0.079128, -0.161227, -0.006828, -0.001785, 9.819810, -0.000593, -0.031639
17.800000, -0.006266, 0.001760, 9.818139, 0.004097, 0.005047, 0.007487, -0.011435, -0.090263, -0.090263, 238.421404, 0.873369, -0.611609, 1.205100, -0.119629, 0.079936, -0.161677, -0.006828, 0.003002, 9.817416, 0.010273, -0.036564
17.850000, -0.004449, 0.001069, 9.820578, 0.004250, 0.007796, 0.007182, -0.014625, -0.076222, -0.076222, 237.819314, 0.880053, -0.616091, 1.214101, -0.120351, 0.080613, -0.162262, -0.003237, 0.000608, 9.822204, 0.006237, -0.025954
17.900000, -0.005876, 0.001511, 9.817963, 0.005319, 0.003367, 0.005349, -0.014492, -0.075446, -0.075446, 238.291695, 0.886788, -0.620620, 1.223132, -0.121122, 0.081349, -0.162703, -0.006828, 0.001805, 9.816220, 0.008816, -0.034292
17.950000, -0.006447, 0.003842, 9.818353, 0.002417, 0.006574, 0.007182, -0.020979, -0.066355, -0.066355, 238.153087, 0.893553, -0.625201, 1.232187, -0.121746, 0.082218, -0.163165, -0.006828, 0.005396, 9.818613, 0.022418, -0.037623
18.000000, -0.005239, 0.001183, 9.819945, 0.008831, 0.001687, 0.005960, -0.011009, -0.070289, -0.070289, 237.399132, 0.900429, -0.629859, 1.241368, -0.122479, 0.082872, -0.163721, -0.004434, -0.000589, 9.821007, 0.006905, -0.030569
18.050000, -0.004756, 0.002275, 9.820582, 0.006082, 0.004283, 0.002448, -0.008544, -0.066722, -0.066722, 237.340267, 0.907296, -0.634522, 1.250522, -0.123135, 0.083523, -0.164308, -0.004434, 0.003002, 9.821007, 0.013270, -0.027749
18.100000, -0.005999, 0.004147, 9.820119, 0.002265, 0.004894, 0.007029, -0.015507, -0.062229, -0.062229, 238.286414, 0.914257, -0.639279, 1.259792, -0.123729, 0.084341, -0.164876, -0.006828, 0.005396, 9.819810, 0.024196, -0.035002
18.150000, -0.005778, 0.002742, 9.819215, 0.006388, 0.003519, 0.007029, -0.011516, -0.061541, -0.061541, 238.092765, 0.921193, -0.644029, 1.269007, -0.124363, 0.085042, -0.165388, -0.005631, 0.001805, 9.818613, 0.015999, -0.033716
18.200000, -0.002099, 0.002898, 9.818854, 0.008984, 0.004741, 0.006571, -0.000792, -0.055985, -0.055985, 237.294775, 0.928132, -0.648788, 1.278225, -0.124825, 0.085527, -0.165878, 0.000353, 0.003002, 9.818613, 0.016910, -0.012251
18.250000, -0.003500, 0.002960, 9.820146, 0.002875, 0.004130, 0.007335, -0.006985, -0.052945, -0.052945, 239.684422, 0.935103, -0.653585, 1.287483, -0.125297, 0.086092, -0.166441, -0.004434, 0.003002, 9.821007, 0.017272, -0.020422
18.300000, -0.006215, 0.004421, 9.817072, 0.004250, 0.002603, 0.008251, -0.008366, -0.055269, -0.055269, 239.269569, 0.942095, -0.658417, 1.296740, -0.125866, 0.086825, -0.166833, -0.008025, 0.005396, 9.815023, 0.025805, -0.036272
18.350000, -0.004428, 0.005724, 9.819433, 0.005777, 0.003978, 0.004128, -0.004930, -0.052943, -0.052943, 238.442868, 0.949106, -0.663286, 1.306028, -0.126311, 0.087527, -0.167355, -0.003237, 0.006592, 9.821007, 0.033399, -0.025839
18.400000, -0.005868, 0.003373, 9.820377, 0.005624, 0.004741, 0.005197, -0.003068, -0.049314, -0.049314, 238.153087, 0.956155, -0.668189, 1.315353, -0.126873, 0.088128, -0.167930, -0.006828, 0.001805, 9.821007, 0.019677, -0.034236
18.450000, -0.005726, 0.002432, 9.820755, 0.002723, 0.005199, 0.007640, -0.009381, -0.044635, -0.044635, 237.593744, 0.963232, -0.673123, 1.324713, -0.127386, 0.088709, -0.168526, -0.005631, 0.001805, 9.821007, 0.014189, -0.033405
18.500000, -0.004233, -0.000098, 9.821624, 0.001348, 0.009017, 0.008862, -0.019900, -0.029502, -0.029502, 240.365795, 0.970384, -0.678119, 1.334191, -0.127731, 0.089139, -0.169175, -0.003237, -0.001785, 9.822204, -0.000574, -0.024692
18.550000, -0.005072, -0.001111, 9.825562, 0.005624, 0.003061, 0.006724, -0.018683, -0.031637, -0.031637, 239.233912, 0.977563, -0.683138, 1.343723, -0.128170, 0.089546, -0.170045, -0.005631, -0.001785, 9.828188, -0.006476, -0.029574
18.600000, -0.004689, 0.000639, 9.823547, 0.007304, 0.000312, 0.007793, -0.012306, -0.040729, -0.040729, 239.414458, 0.984728, -0.688155, 1.353240, -0.128644, 0.090015, -0.170798, -0.004434, 0.001805, 9.822204, 0.003726, -0.027349
18.650000, -0.002382, -0.002252, 9.822741, 0.004708, 0.005352, 0.007335, -0.014499, -0.034740, -0.034740, 238.350592, 0.991888, -0.693163, 1.362762, -0.129031, 0.090267, -0.171504, -0.000844, -0.004179, 9.822204, -0.013135, -0.013893
18.700000, -0.002895, 0.000900, 9.823137, 0.006235, 0.000771, 0.006266, -0.011105, -0.041506, -0.041506, 238.767599, 0.999077, -0.698205, 1.372334, -0.129424, 0.090689, -0.172232, -0.003237, 0.003002, 9.823400, 0.005251, -0.016886
18.750000, -0.003100, 0.000725, 9.823295, 0.008984, 0.005047, 0.009167, -0.000705, -0.036450, -0.036450, 238.264661, 1.006295, -0.703264, 1.381955, -0.129843, 0.090999, -0.172970, -0.003237, 0.000608, 9.823400, 0.004229, -0.018084
18.800000, -0.004619, 0.001373, 9.823358, 0.002875, 0.006726, 0.006724, -0.006980, -0.027925, -0.027925, 238.159947, 1.013536, -0.708350, 1.391622, -0.130214, 0.091394, -0.173711, -0.005631, 0.001805, 9.823400, 0.008008, -0.026939
18.850000, -0.004508, 0.002350, 9.824102, 0.008679, 0.004283, 0.007335, 0.003067, -0.026462, -0.026462, 238.012039, 1.020787, -0.713446, 1.401317, -0.130589, 0.091741, -0.174493, -0.004434, 0.003002, 9.824597, 0.013708, -0.026291
18.900000, -0.005182, 0.001305, 9.825117, 0.004708, 0.003214, 0.003975, 0.001414, -0.028235, -0.028235, 237.261449, 1.028063, -0.718560, 1.411060, -0.131032, 0.092082, -0.175331, -0.005631, 0.000608, 9.825794, 0.007611, -0.030218
18.950000, -0.004733, 0.000169, 9.824087, 0.009900, 0.002756, 0.006266, 0.013174, -0.030901, -0.030901, 238.930194, 1.035388, -0.723692, 1.420867, -0.131568, 0.092274, -0.176113, -0.004434, -0.000589, 9.823400, 0.000985, -0.027605
19.000000, -0.005990, 0.002587, 9.824393, 0.003944, 0.002603, 0.009320, 0.009283, -0.034310, -0.034310, 239.064622, 1.042798, -0.728891, 1.430793, -0.132106, 0.092669, -0.176919, -0.006828, 0.004199, 9.824597, 0.015086, -0.034933
19.050000, -0.002902, 0.002836, 9.824516, 0.000737, 0.005505, 0.007793, -0.002695, -0.028431, -0.028431, 238.233834, 1.050210, -0.734106, 1.440757, -0.132380, 0.093053, -0.177730, -0.000844, 0.003002, 9.824597, 0.016538, -0.016925
19.100000, -0.003103, 0.002935, 9.821692, 0.008068, 0.003214, 0.004280, 0.005753, -0.029119, -0.029119, 237.135595, 1.057577, -0.739293, 1.450665, -0.132706, 0.093380, -0.178379, -0.003237, 0.003002, 9.819810, 0.017124, -0.018103
19.150000, -0.004620, 0.000821, 9.822717, 0.006082, 0.005505, 0.006724, 0.007421, -0.024309, -0.024309, 238.509555, 1.064974, -0.744492, 1.460618, -0.133135, 0.093614, -0.179084, -0.005631, -0.000589, 9.823400, 0.004789, -0.026948
19.200000, -0.003790, 0.001411, 9.825281, 0.008526, 0.006116, 0.005349, 0.015692, -0.017885, -0.017885, 238.758436, 1.072385, -0.749694, 1.470618, -0.133496, 0.093753, -0.179931, -0.003237, 0.001805, 9.826991, 0.008231, -0.022103
19.250000, -0.003459, 0.000211, 9.827025, 0.004403, 0.002756, 0.005960, 0.011870, -0.020716, -0.020716, 235.681197, 1.079876, -0.754942, 1.480751, -0.133883, 0.093871, -0.180882, -0.003237, -0.000589, 9.828188, 0.001233, -0.020165
19.300000, -0.006916, 0.001886, 9.827723, 0.009290, 0.004588, 0.008862, 0.021987, -0.019978, -0.019978, 239.008443, 1.089802, -0.761877, 1.494197, -0.134603, 0.094153, -0.182185, -0.009221, 0.003002, 9.828188, 0.010994, -0.040322
19.350000, -0.007581, 0.001119, 9.826566, 0.005777, 0.005657, 0.009931, 0.021673, -0.016809, -0.016809, 236.964357, 1.097317, -0.767116, 1.504382, -0.135173, 0.094336, -0.183104, -0.008025, 0.000608, 9.825794, 0.006526, -0.044204
19.400000, -0.007847, 0.000813, 9.826103, 0.011122, 0.000007, 0.008251, 0.035376, -0.029051, -0.029051, 237.195328, 1.104882, -0.772362, 1.514617, -0.135931, 0.094464, -0.183998, -0.008025, 0.000608, 9.825794, 0.004738, -0.045757
19.450000, -0.005081, 0.001408, 9.828790, 0.007151, 0.002909, 0.006113, 0.037700, -0.031534, -0.031534, 237.274888, 1.112491, -0.777618, 1.524931, -0.136575, 0.094533, -0.185042, -0.003237, 0.001805, 9.830581, 0.008208, -0.029621
19.500000, -0.006847, 0.001646, 9.826992, 0.009595, 0.007643, 0.009778, 0.046348, -0.022042, -0.022042, 236.094478, 1.120204, -0.782918, 1.535383, -0.137267, 0.094549, -0.185994, -0.008025, 0.001805, 9.825794, 0.009598, -0.039923
19.550000, -0.003963, 0.002460, 9.826273, 0.007151, 0.005047, 0.004128, 0.048120, -0.018939, -0.018939, 238.604880, 1.127946, -0.788215, 1.545891, -0.137783, 0.094488, -0.186906, -0.002040, 0.003002, 9.825794, 0.014342, -0.023109
19.600000, -0.004246, 0.002785, 9.825986, 0.010817, 0.006726, 0.003975, 0.059521, -0.011749, -0.011749, 238.105069, 1.135669, -0.793468, 1.556383, -0.138298, 0.094323, -0.187797, -0.004434, 0.003002, 9.825794, 0.016239, -0.024757
19.650000, -0.002204, 0.000043, 9.830179, 0.006541, 0.008101, 0.006266, 0.057419, -0.000600, -0.000600, 236.862460, 1.143367, -0.798664, 1.566885, -0.138695, 0.093931, -0.188915, -0.000844, -0.001785, 9.832975, 0.000249, -0.012849
19.700000, -0.002824, 0.000382, 9.827548, 0.001501, 0.005199, 0.007487, 0.042095, 0.001719, 0.001719, 238.378339, 1.151086, -0.803853, 1.577444, -0.139016, 0.093684, -0.189888, -0.003237, 0.000608, 9.825794, 0.002227, -0.016465
19.750000, -0.004508, -0.000200, 9.826496, 0.004403, 0.006268, 0.005960, 0.035237, 0.005915, 0.005915, 238.711494, 1.158814, -0.809025, 1.588035, -0.139364, 0.093494, -0.190802, -0.005631, -0.000589, 9.825794, -0.001168, -0.026286
19.800000, -0.003746, 0.000285, 9.823202, 0.005472, 0.005352, 0.006724, 0.031832, 0.007607, 0.007607, 238.080629, 1.166553, -0.814188, 1.598662, -0.139630, 0.093324, -0.191533, -0.003237, 0.000608, 9.821007, 0.001661, -0.021847
19.850000, -0.002723, 0.002633, 9.823321, 0.006235, 0.003214, 0.006877, 0.031638, 0.003864, 0.003864, 236.549099, 1.174305, -0.819353, 1.609336, -0.139809, 0.093254, -0.192271, -0.002040, 0.004199, 9.823400, 0.015358, -0.015880
19.900000, -0.005186, 0.001418, 9.821933, 0.003792, 0.001992, 0.006724, 0.024406, -0.003967, -0.003967, 238.080629, 1.182165, -0.824579, 1.620160, -0.140170, 0.093298, -0.192939, -0.006828, 0.000608, 9.821007, 0.008273, -0.030250
19.950000, -0.005453, 0.002368, 9.822813, 0.005624, 0.003214, 0.008709, 0.022939, -0.008167, -0.008167, 237.406660, 1.189993, -0.829780, 1.630953, -0.140539, 0.093427, -0.193652, -0.005631, 0.003002, 9.823400, 0.013815, -0.031806
20.000000, -0.006278, 0.002030, 9.822448, 0.008221, 0.002450, 0.005349, 0.028290, -0.014506, -0.014506, 238.291695, 1.197895, -0.835016, 1.641842, -0.141038, 0.093555, -0.194348, -0.006828, 0.001805, 9.822204, 0.011843, -0.036619
20.050000, -0.005890, 0.004768, 9.820147, 0.009595, 0.005505, 0.008251, 0.038030, -0.012169, -0.012169, 238.517620, 1.205816, -0.840260, 1.652755, -0.141467, 0.093710, -0.194915, -0.005631, 0.006592, 9.818613, 0.027816, -0.034363
20.100000, -0.005016, 0.002272, 9.824971, 0.002417, 0.002909, 0.007029, 0.026899, -0.016573, -0.016573, 237.599282, 1.213705, -0.845471, 1.663642, -0.141905, 0.093833, -0.195746, -0.004434, 0.000608, 9.828188, 0.013249, -0.029254
20.150000, -0.005385, 0.002710, 9.823311, 0.011580, 0.003367, 0.004739, 0.041041, -0.019632, -0.019632, 238.188819, 1.221621, -0.850681, 1.674562, -0.142444, 0.093889, -0.196484, -0.005631, 0.003002, 9.822204, 0.015806, -0.031409
20.200000, -0.004815, 0.003603, 9.824083, 0.001654, 0.007185, 0.004586, 0.028128, -0.012126, -0.012126, 239.063697, 1.229538, -0.855892, 1.685506, -0.142803, 0.094035, -0.197264, -0.004434, 0.004199, 9.824597, 0.021014, -0.028079
20.250000, -0.003868, 0.003242, 9.823673, 0.006235, 0.007032, 0.005349, 0.028146, -0.005219, -0.005219, 240.268520, 1.237469, -0.861105, 1.696494, -0.143073, 0.094101, -0.198021, -0.003237, 0.003002, 9.823400, 0.018911, -0.022561
20.300000, -0.005644, -0.000492, 9.824946, 0.006846, 0.002756, 0.008098, 0.028132, -0.010985, -0.010985, 237.457809, 1.245450, -0.866324, 1.707550, -0.143584, 0.094072, -0.198850, -0.006828, -0.002982, 9.825794, -0.002871, -0.032913
20.350000, -0.004200, 0.002322, 9.824019, 0.008984, 0.008406, 0.005960, 0.034921, -0.000777, -0.000777, 238.989195, 1.253452, -0.871546, 1.718661, -0.143896, 0.094027, -0.199629, -0.003237, 0.004199, 9.823400, 0.013544, -0.024495
20.400000, -0.004340, 0.004884, 9.818621, 0.005013, 0.005657, 0.006571, 0.031731, 0.001251, 0.001251, 237.001115, 1.261458, -0.876774, 1.729784, -0.144106, 0.094123, -0.200108, -0.004434, 0.006592, 9.815023, 0.028502, -0.025328
20.450000, -0.008705, 0.004473, 9.817898, 0.006235, 0.004283, 0.007335, 0.031830, -0.002491, -0.002491, 238.068657, 1.269486, -0.882010, 1.740914, -0.144564, 0.094345, -0.200546, -0.011615, 0.004199, 9.817416, 0.026103, -0.050802
20.500000, -0.007579, 0.000718, 9.814019, 0.010359, 0.003978, 0.005808, 0.041203, -0.006415, -0.006415, 237.159999, 1.277616, -0.887280, 1.752142, -0.145163, 0.094303, -0.200770, -0.006828, -0.001785, 9.811432, 0.004191, -0.044246
20.550000, -0.005692, 0.001370, 9.819648, 0.004555, 0.003367, 0.006724, 0.034668, -0.010953, -0.010953, 237.705304, 1.285766, -0.892548, 1.763402, -0.145657, 0.094311, -0.201309, -0.004434, 0.001805, 9.823400, 0.007995, -0.033212
20.600000, -0.003501, 0.000195, 9.817591, 0.004861, 0.005047, 0.006113, 0.028842, -0.009809, -0.009809, 238.801465, 1.293885, -0.897779, 1.774614, -0.146041, 0.094241, -0.201730, -0.002040, -0.000589, 9.816220, 0.001138, -0.020432
20.650000, -0.004061, 0.003315, 9.816768, 0.007304, 0.006268, 0.005044, 0.031207, -0.005786, -0.005786, 238.421404, 1.302000, -0.903004, 1.785821, -0.146338, 0.094294, -0.202105, -0.004434, 0.005396, 9.816220, 0.019350, -0.023702
20.700000, -0.002849, 0.001691, 9.816439, 0.004555, 0.007185, 0.006571, 0.025366, 0.000841, 0.000841, 238.639324, 1.310127, -0.908226, 1.797050, -0.146543, 0.094249, -0.202462, -0.002040, 0.000608, 9.816220, 0.009870, -0.016627
20.750000, -0.005954, 0.003196, 9.818462, 0.003639, 0.005047, 0.008251, 0.018142, -0.000095, -0.000095, 238.068657, 1.318307, -0.913487, 1.808360, -0.146822, 0.094429, -0.202933, -0.008025, 0.004199, 9.819810, 0.018648, -0.034746
20.800000, -0.002170, 0.004516, 9.817116, 0.007151, 0.004436, 0.006724, 0.021344, -0.001034, -0.001034, 237.583299, 1.326451, -0.918729, 1.819638, -0.146907, 0.094539, -0.203328, 0.000353, 0.005396, 9.816220, 0.026354, -0.012664
20.850000, -0.002092, 0.002171, 9.820169, 0.004403, 0.005352, 0.005960, 0.016014, 0.000527, 0.000527, 238.747860, 1.334613, -0.923979, 1.830969, -0.147018, 0.094571, -0.203892, -0.002040, 0.000608, 9.822204, 0.012668, -0.012207
20.900000, -0.006370, 0.001951, 9.821390, 0.006541, 0.006268, 0.005502, 0.016644, 0.002503, 0.002503, 237.168462, 1.342785, -0.929230, 1.842320, -0.147324, 0.094703, -0.204523, -0.009221, 0.001805, 9.822204, 0.011385, -0.037160
20.950000, -0.005926, 0.001864, 9.819724, 0.005319, 0.001840, 0.008404, 0.013935, -0.007332, -0.007332, 237.906614, 1.350990, -0.934501, 1.853714, -0.147677, 0.094890, -0.205063, -0.005631, 0.001805, 9.818613, 0.010874, -0.034579
21.000000, -0.005031, 0.003983, 9.821930, 0.003028, 0.000923, 0.008251, 0.006267, -0.018551, -0.018551, 238.625836, 1.359269, -0.939836, 1.865231, -0.147980, 0.095271, -0.205729, -0.004434, 0.005396, 9.823400, 0.023233, -0.029348
21.050000, -0.005391, 0.003394, 9.822094, -0.001706, 0.003672, 0.009625, -0.013587, -0.021834, -0.021834, 237.709710, 1.367561, -0.945206, 1.876785, -0.148243, 0.095813, -0.206405, -0.005631, 0.003002, 9.822204, 0.019800, -0.031448
21.100000, -0.005535, -0.000432, 9.821442, 0.004555, 0.005963, 0.006724, -0.016928, -0.018889, -0.018889, 238.082189, 1.375816, -0.950555, 1.888293, -0.148582, 0.096188, -0.207040, -0.005631, -0.002982, 9.821007, -0.002518, -0.032290
21.150000, -0.004874, 0.000910, 9.820463, 0.006235, 0.003672, 0.008251, -0.014941, -0.021989, -0.021989, 237.749458, 1.384079, -0.955922, 1.899820, -0.148886, 0.096605, -0.207620, -0.004434, 0.001805, 9.819810, 0.005311, -0.028439
21.200000, -0.006046, 0.000729, 9.822225, 0.006388, 0.004894, 0.006113, -0.012718, -0.022146, -0.022146, 237.384382, 1.392394, -0.961333, 1.911428, -0.149264, 0.097033, -0.208300, -0.006828, 0.000608, 9.823400, 0.004253, -0.035271
21.250000, -0.003643, 0.001375, 9.822212, 0.005319, 0.002756, 0.009015, -0.013165, -0.026952, -0.026952, 238.481691, 1.400711, -0.966758, 1.923058, -0.149546, 0.097448, -0.208978, -0.002040, 0.001805, 9.822204, 0.008019, -0.021250
21.300000, -0.005554, 0.002351, 9.822207, 0.008068, 0.002450, 0.006113, -0.005805, -0.033025, -0.033025, 238.950827, 1.409051, -0.972210, 1.934719, -0.149976, 0.097936, -0.209656, -0.006828, 0.003002, 9.822204, 0.013714, -0.032397
21.350000, -0.007036, 0.004178, 9.820769, 0.010053, 0.006421, 0.007335, 0.007120, -0.028761, -0.028761, 238.873933, 1.417403, -0.977679, 1.946388, -0.150451, 0.098426, -0.210252, -0.008025, 0.005396, 9.819810, 0.024373, -0.041051
21.400000, -0.007629, 0.002754, 9.822348, 0.006999, 0.007796, 0.005349, 0.010415, -0.021464, -0.021464, 237.081027, 1.425788, -0.983169, 1.958105, -0.150954, 0.098805, -0.210937, -0.008025, 0.001805, 9.823400, 0.016065, -0.044503
21.450000, -0.005712, -0.001406, 9.823697, 0.005930, 0.001840, 0.007793, 0.008837, -0.029734, -0.029734, 239.026593, 1.434200, -0.988657, 1.969853, -0.151548, 0.098984, -0.211695, -0.004434, -0.004179, 9.824597, -0.008199, -0.033316
21.500000, -0.007100, 0.000521, 9.827828, 0.008221, 0.005047, 0.005808, 0.014238, -0.029497, -0.029497, 238.769662, 1.442744, -0.994226, 1.981797, -0.152183, 0.099253, -0.212694, -0.008025, 0.001805, 9.830581, 0.003036, -0.041390
21.550000, -0.006218, 0.001291, 9.825171, 0.008679, 0.004283, 0.005502, 0.020754, -0.030954, -0.030954, 237.533144, 1.451307, -0.999797, 1.993765, -0.152797, 0.099487, -0.213542, -0.005631, 0.001805, 9.823400, 0.007530, -0.036263
21.600000, -0.005866, 0.000881, 9.824109, 0.004555, 0.005352, 0.005197, 0.015635, -0.029331, -0.029331, 237.784765, 1.459825, -1.005331, 2.005668, -0.153363, 0.099722, -0.214324, -0.005631, 0.000608, 9.823400, 0.005141, -0.034211
21.650000, -0.002853, 0.003590, 9.822966, 0.005166, 0.005810, 0.009320, 0.013666, -0.025318, -0.025318, 237.820265, 1.468363, -1.010889, 2.017624, -0.153665, 0.099992, -0.215044, -0.000844, 0.005396, 9.822204, 0.020939, -0.016639
21.700000, -0.005956, 0.003955, 9.822508, 0.007610, 0.002145, 0.008098, 0.018502, -0.032646, -0.032646, 237.823462, 1.477019, -1.016525, 2.029735, -0.154190, 0.100373, -0.215744, -0.008025, 0.004199, 9.822204, 0.023071, -0.034741
21.750000, -0.007915, 0.004101, 9.822326, 0.006999, 0.006116, 0.007029, 0.021434, -0.029759, -0.029759, 237.809561, 1.485643, -1.022141, 2.041790, -0.154791, 0.100777, -0.216430, -0.009221, 0.004199, 9.822204, 0.023924, -0.046171
21.800000, -0.007981, 0.004878, 9.824407, 0.007304, 0.004741, 0.005197, 0.025302, -0.030806, -0.030806, 237.893744, 1.494284, -1.027768, 2.053867, -0.155399, 0.101193, -0.217229, -0.008025, 0.005396, 9.825794, 0.028447, -0.046544
21.850000, -0.006571, 0.003034, 9.825239, 0.007457, 0.007032, 0.007487, 0.028494, -0.025135, -0.025135, 237.880578, 1.502948, -1.033398, 2.065983, -0.155965, 0.101426, -0.218074, -0.005631, 0.001805, 9.825794, 0.017694, -0.038318
21.900000, -0.002416, 0.001579, 9.824854, 0.004403, 0.001076, 0.003822, 0.022686, -0.033908, -0.033908, 237.422032, 1.511632, -1.039032, 2.078141, -0.156420, 0.101560, -0.218897, 0.000353, 0.000608, 9.824597, 0.009206, -0.014092
21.950000, -0.006499, 0.003869, 9.821110, 0.001806, 0.007643, 0.003975, 0.011386, -0.026336, -0.026336, 238.530902, 1.520345, -1.044699, 2.090332, -0.156881, 0.101974, -0.219513, -0.009221, 0.005396, 9.818613, 0.022570, -0.037917
22.000000, -0.007415, 0.000476, 9.822484, 0.009595, 0.002298, 0.005655, 0.020133, -0.033931, -0.033931, 238.741348, 1.529170, -1.050418, 2.102654, -0.157596, 0.102226, -0.220210, -0.008025, -0.001785, 9.823400, 0.002778, -0.043250
22.050000, -0.008499, 0.001274, 9.823752, 0.008526, 0.003214, 0.008556, 0.025691, -0.039028, -0.039028, 236.340945, 1.538041, -1.056153, 2.115018, -0.158407, 0.102529, -0.220978, -0.009221, 0.001805, 9.824597, 0.007428, -0.049567
22.100000, -0.008214, 0.003747, 9.826413, 0.002723, 0.002450, 0.006418, 0.016472, -0.045675, -0.045675, 238.047021, 1.546893, -1.061886, 2.127358, -0.159134, 0.103046, -0.221888, -0.008025, 0.005396, 9.828188, 0.021846, -0.047895
22.150000, -0.003792, 0.001864, 9.823888, 0.002570, 0.004436, 0.005808, 0.006732, -0.044647, -0.044647, 238.274658, 1.555776, -1.067641, 2.139749, -0.159651, 0.103418, -0.222659, -0.000844, 0.000608, 9.822204, 0.010869, -0.022115
22.200000, -0.004177, 0.002547, 9.825750, 0.005624, 0.006421, 0.008404, 0.006124, -0.038535, -0.038535, 237.171458, 1.564666, -1.073408, 2.152167, -0.160113, 0.103807, -0.223532, -0.004434, 0.003002, 9.826991, 0.014849, -0.024358
22.250000, -0.004331, 0.000665, 9.825058, 0.001501, 0.001840, 0.008404, -0.006162, -0.045051, -0.045051, 237.268122, 1.573586, -1.079199, 2.164629, -0.160628, 0.104244, -0.224367, -0.004434, -0.000589, 9.824597, 0.003881, -0.025259
22.300000, -0.005111, -0.001523, 9.823345, 0.003486, 0.001840, 0.006724, -0.013192, -0.051363, -0.051363, 237.953150, 1.582545, -1.085016, 2.177131, -0.161259, 0.104690, -0.225106, -0.005631, -0.002982, 9.822204, -0.008884, -0.029811
22.350000, -0.004705, -0.002399, 9.823378, 0.003944, 0.000465, 0.008709, -0.018851, -0.060610, -0.060610, 238.069991, 1.591536, -1.090857, 2.189665, -0.161942, 0.105175, -0.225847, -0.004434, -0.002982, 9.823400, -0.013990, -0.027442
22.400000, -0.003106, 0.000124, 9.825546, 0.006846, 0.002603, 0.006571, -0.015285, -0.062708, -0.062708, 238.385290, 1.600560, -1.096732, 2.202255, -0.162511, 0.105713, -0.226708, -0.002040, 0.001805, 9.826991, 0.000721, -0.018114
22.450000, -0.006775, -0.000304, 9.826413, 0.003792, 0.006421, 0.005197, -0.020221, -0.055993, -0.055993, 237.248379, 1.609629, -1.102647, 2.214903, -0.163186, 0.106346, -0.227618, -0.009221, -0.000589, 9.826991, -0.001771, -0.039506
22.500000, -0.004653, -0.002629, 9.826760, 0.005166, 0.000771, 0.007182, -0.022104, -0.063790, -0.063790, 237.593744, 1.619510, -1.109093, 2.228683, -0.163942, 0.106905, -0.228625, -0.003237, -0.004179, 9.826991, -0.015328, -0.027127
22.550000, -0.005240, -0.002123, 9.824744, 0.004861, 0.004436, 0.006724, -0.024416, -0.061437, -0.061437, 239.045963, 1.628733, -1.115117, 2.241533, -0.164627, 0.107473, -0.229448, -0.005631, -0.001785, 9.823400, -0.012380, -0.030556
22.600000, -0.000448, -0.001920, 9.823220, 0.006693, 0.006421, 0.007182, -0.021575, -0.051824, -0.051824, 237.988785, 1.637911, -1.121118, 2.254341, -0.165013, 0.107832, -0.230183, 0.002747, -0.001785, 9.822204, -0.011201, -0.002612
22.650000, -0.002840, -0.005430, 9.822610, 0.000737, 0.001534, 0.007487, -0.036232, -0.056782, -0.056782, 237.860966, 1.647100, -1.127125, 2.267151, -0.165580, 0.108240, -0.230881, -0.004434, -0.007770, 9.822204, -0.031673, -0.016563
22.700000, -0.004514, -0.002525, 9.825957, 0.007762, 0.005505, 0.009931, -0.029895, -0.051456, -0.051456, 238.024396, 1.656329, -1.133171, 2.280030, -0.166129, 0.108755, -0.231765, -0.005631, -0.000589, 9.828188, -0.014724, -0.026324
22.750000, -0.001594, -0.001363, 9.826577, 0.003334, 0.002145, 0.005502, -0.035223, -0.054091, -0.054091, 237.361965, 1.665569, -1.139245, 2.292954, -0.166501, 0.109296, -0.232684, 0.000353, -0.000589, 9.826991, -0.007948, -0.009293
22.800000, -0.001144, -0.002335, 9.823953, 0.005319, 0.005963, 0.007793, -0.035235, -0.046083, -0.046083, 237.799008, 1.674836, -1.145348, 2.305932, -0.166817, 0.109737, -0.233458, -0.000844, -0.002982, 9.822204, -0.013616, -0.006671
22.850000, -0.002400, -0.002005, 9.825776, 0.004555, 0.001381, 0.009473, -0.037064, -0.051251, -0.051251, 237.406660, 1.684113, -1.151473, 2.318942, -0.167213, 0.110271, -0.234332, -0.003237, -0.001785, 9.826991, -0.011692, -0.013994
22.900000, -0.000748, -0.004746, 9.825787, 0.007151, 0.003061, 0.005044, -0.032992, -0.050754, -0.050754, 237.147213, 1.693412, -1.157609, 2.331998, -0.167629, 0.110593, -0.235206, 0.000353, -0.006573, 9.825794, -0.027673, -0.004362
22.950000, -0.003678, -0.000815, 9.827945, -0.001248, 0.003367, 0.005655, -0.049767, -0.050624, -0.050624, 238.840695, 1.702738, -1.163803, 2.345125, -0.167981, 0.111321, -0.236201, -0.005631, 0.001805, 9.829385, -0.004753, -0.021441
23.000000, -0.003413, 0.000039, 9.828809, 0.000127, 0.003061, 0.009167, -0.061147, -0.051114, -0.051114, 238.609732, 1.712137, -1.170090, 2.358398, -0.168244, 0.112181, -0.237250, -0.003237, 0.000608, 9.829385, 0.000226, -0.019899
23.050000, -0.001154, 0.002535, 9.827718, 0.005319, 0.004283, 0.007946, -0.056650, -0.047256, -0.047256, 240.567650, 1.721564, -1.176443, 2.371766, -0.168320, 0.113037, -0.238242, 0.000353, 0.004199, 9.826991, 0.014778, -0.006725
23.100000, -0.000250, -0.000057, 9.828718, 0.005624, 0.002145, 0.006877, -0.052599, -0.048845, -0.048845, 238.105069, 1.730913, -1.182770, 2.385068, -0.168463, 0.113713, -0.239280, 0.000353, -0.001785, 9.829385, -0.000334, -0.001454
23.150000, -0.000606, 0.001060, 9.827682, 0.005013, 0.003061, 0.005502, -0.049833, -0.047903, -0.047903, 239.083338, 1.740270, -1.189137, 2.398425, -0.168597, 0.114424, -0.240260, -0.000844, 0.001805, 9.826991, 0.006180, -0.003533
23.200000, -0.000749, 0.000789, 9.825113, 0.003639, 0.004741, 0.004891, -0.050874, -0.042513, -0.042513, 238.667209, 1.749620, -1.195534, 2.411807, -0.168697, 0.115106, -0.241097, -0.000844, 0.000608, 9.823400, 0.004601, -0.004365
23.250000, -0.002242, -0.000756, 9.826240, 0.010053, 0.001229, 0.006571, -0.035343, -0.047375, -0.047375, 238.012359, 1.758992, -1.201956, 2.425236, -0.169030, 0.115659, -0.241996, -0.003237, -0.001785, 9.826991, -0.004406, -0.013072
23.300000, -0.003557, 0.000781, 9.826690, 0.003639, -0.000757, 0.008556, -0.037218, -0.057612, -0.057612, 237.234723, 1.768404, -1.208432, 2.438736, -0.169454, 0.116390, -0.242922, -0.004434, 0.001805, 9.826991, 0.004552, -0.020741
23.350000, -0.001929, 0.001395, 9.822562, 0.001196, 0.003061, 0.006418, -0.045044, -0.056149, -0.056149, 237.507579, 1.777816, -1.214945, 2.452254, -0.169731, 0.117157, -0.243617, -0.000844, 0.001805, 9.819810, 0.008139, -0.011252
23.400000, -0.000560, 0.002359, 9.825219, 0.006388, 0.004741, 0.006266, -0.037947, -0.049616, -0.049616, 238.724497, 1.787237, -1.221495, 2.465826, -0.169898, 0.117840, -0.244460, 0.000353, 0.003002, 9.826991, 0.013758, -0.003264
23.450000, -0.000730, 0.002027, 9.824846, 0.002417, 0.001534, 0.006877, -0.041902, -0.052013, -0.052013, 238.349367, 1.796663, -1.228082, 2.479436, -0.170083, 0.118555, -0.245282, -0.000844, 0.001805, 9.824597, 0.011819, -0.004258
23.500000, -0.001516, 0.000458, 9.822543, 0.004708, 0.007337, 0.007793, -0.040016, -0.039050, -0.039050, 238.291695, 1.806275, -1.234822, 2.493335, -0.170258, 0.119150, -0.245989, -0.002040, -0.000589, 9.821007, 0.002669, -0.008845
23.550000, -0.002549, -0.002324, 9.824493, 0.004250, 0.004894, 0.006877, -0.040572, -0.033894, -0.033894, 238.856098, 1.815821, -1.241526, 2.507164, -0.170519, 0.119617, -0.246800, -0.003237, -0.004179, 9.825794, -0.013556, -0.014865
23.600000, -0.002962, -0.002001, 9.822401, 0.007304, 0.005810, 0.005197, -0.032771, -0.026818, -0.026818, 239.217891, 1.825303, -1.248195, 2.520915, -0.170771, 0.120008, -0.247488, -0.003237, -0.001785, 9.821007, -0.011672, -0.017278
23.650000, -0.002409, 0.000283, 9.823001, 0.001806, 0.004283, 0.005044, -0.039073, -0.024050, -0.024050, 238.294562, 1.834781, -1.254893, 2.534698, -0.170875, 0.120528, -0.248208, -0.002040, 0.001805, 9.823400, 0.001648, -0.014052
23.700000, -0.000034, 0.001196, 9.825395, 0.006235, 0.001687, 0.006266, -0.032648, -0.027310, -0.027310, 238.898315, 1.844260, -1.261616, 2.548535, -0.170900, 0.120986, -0.249062, 0.001550, 0.001805, 9.826991, 0.006975, -0.000196
23.750000, -0.001238, 0.000125, 9.824198, 0.007151, 0.000771, 0.006266, -0.024625, -0.033201, -0.033201, 237.508101, 1.853755, -1.268360, 2.562413, -0.171101, 0.121393, -0.249849, -0.002040, -0.000589, 9.823400, 0.000731, -0.007219
23.800000, -0.002437, -0.001021, 9.822283, -0.002011, 0.003214, 0.007029, -0.041918, -0.032622, -0.032622, 238.094558, 1.863248, -1.275127, 2.576308, -0.171300, 0.121917, -0.250529, -0.003237, -0.001785, 9.821007, -0.005957, -0.014218
23.850000, -0.003635, -0.000762, 9.822954, 0.001806, 0.003214, 0.009473, -0.047583, -0.032553, -0.032553, 238.385290, 1.872785, -1.281953, 2.590289, -0.171520, 0.122536, -0.251249, -0.004434, -0.000589, 9.823400, -0.004442, -0.021205
23.900000, -0.006269, -0.001376, 9.825376, 0.005472, 0.001229, 0.004891, -0.043251, -0.038866, -0.038866, 237.965854, 1.882323, -1.288796, 2.604279, -0.171954, 0.123197, -0.252100, -0.008025, -0.001785, 9.826991, -0.008023, -0.036557
23.950000, -0.007322, 0.000533, 9.825627, 0.000585, 0.002756, 0.006266, -0.051267, -0.041110, -0.041110, 239.673600, 1.893557, -1.296909, 2.620779, -0.172432, 0.124204, -0.253116, -0.008025, 0.001805, 9.825794, 0.003106, -0.042698
24.000000, -0.004153, -0.000140, 9.822137, 0.005777, 0.000771, 0.004586, -0.045054, -0.047077, -0.047077, 238.457709, 1.903227, -1.303913, 2.634987, -0.172792, 0.124923, -0.253794, -0.002040, -0.000589, 9.819810, -0.000817, -0.024227
24.050000, -0.001449, 0.001745, 9.823613, 0.003944, 0.008101, 0.005655, -0.043216, -0.031924, -0.031924, 239.238429, 1.912900, -1.310957, 2.649251, -0.172854, 0.125562, -0.254555, 0.000353, 0.003002, 9.824597, 0.010178, -0.008454
24.100000, -0.003240, 0.000345, 9.821331, 0.007762, 0.001534, 0.009167, -0.031848, -0.036021, -0.036021, 238.949854, 1.922506, -1.317963, 2.663415, -0.173131, 0.126109, -0.255183, -0.004434, -0.000589, 9.819810, 0.002012, -0.018903
24.150000, -0.001084, 0.002657, 9.823291, -0.000942, 0.002145, 0.006571, -0.043302, -0.037206, -0.037206, 238.675315, 1.932107, -1.325011, 2.677621, -0.173192, 0.126802, -0.255919, 0.000353, 0.004199, 9.824597, 0.015498, -0.006324
24.200000, -0.002376, 0.000710, 9.824793, 0.007457, 0.003672, 0.005960, -0.032311, -0.034726, -0.034726, 238.242724, 1.941734, -1.332091, 2.691889, -0.173405, 0.127339, -0.256740, -0.003237, -0.000589, 9.825794, 0.004139, -0.013857
24.250000, -0.001457, -0.001505, 9.824675, 0.006388, 0.001534, 0.006418, -0.025832, -0.037640, -0.037640, 238.671307, 1.951385, -1.339191, 2.706210, -0.173695, 0.127706, -0.257554, -0.000844, -0.002982, 9.824597, -0.008780, -0.008495
24.300000, -0.001807, 0.000481, 9.826065, 0.004708, 0.004130, 0.009167, -0.023377, -0.033521, -0.033521, 238.256054, 1.961040, -1.346312, 2.720572, -0.173923, 0.128138, -0.258445, -0.002040, 0.001805, 9.826991, 0.002804, -0.010536
24.350000, -0.001229, 0.001275, 9.823748, 0.006235, 0.003672, 0.006877, -0.016635, -0.030607, -0.030607, 239.579541, 1.970692, -1.353443, 2.734955, -0.174110, 0.128520, -0.259207, -0.000844, 0.001805, 9.822204, 0.007438, -0.007168
24.400000, -0.002434, 0.001593, 9.823540, 0.002570, 0.003978, 0.008404, -0.019905, -0.027557, -0.027557, 237.893744, 1.980380, -1.360619, 2.749416, -0.174305, 0.128964, -0.259959, -0.003237, 0.001805, 9.823400, 0.009292, -0.014196
24.450000, -0.002198, 0.001002, 9.822738, 0.002570, -0.001673, 0.004128, -0.023104, -0.039573, -0.039573, 237.908189, 1.990059, -1.367804, 2.763874, -0.174586, 0.129458, -0.260664, -0.002040, 0.000608, 9.822204, 0.005846, -0.012820
24.500000, -0.002103, 0.000766, 9.819545, 0.001959, 0.000923, 0.006266, -0.027703, -0.043692, -0.043692, 237.328280, 1.999846, -1.375088, 2.778495, -0.174882, 0.130001, -0.261198, -0.002040, 0.000608, 9.817416, 0.004468, -0.012273
24.550000, -0.002066, 0.000671, 9.821858, 0.002875, 0.006268, 0.008556, -0.029478, -0.033227, -0.033227, 238.634928, 2.009639, -1.382397, 2.793152, -0.175085, 0.130501, -0.261860, -0.002040, 0.000608, 9.823400, 0.003916, -0.012050
24.600000, 0.000822, 0.000633, 9.818475, 0.004250, 0.003061, 0.004891, -0.027397, -0.030727, -0.030727, 237.812931, 2.019358, -1.389670, 2.807720, -0.175141, 0.130882, -0.262330, 0.002747, 0.000608, 9.816220, 0.003696, 0.004796
24.650000, 0.002695, 0.001336, 9.820712, 0.003486, 0.002603, 0.005349, -0.027100, -0.028710, -0.028710, 238.341610, 2.029058, -1.396952, 2.822307, -0.175073, 0.131229, -0.262924, 0.003944, 0.001805, 9.822204, 0.007797, 0.015723
24.700000, -0.000146, 0.000181, 9.823043, 0.004403, 0.003825, 0.004433, -0.024798, -0.024713, -0.024713, 237.826543, 2.038776, -1.404259, 2.836952, -0.175151, 0.131565, -0.263647, -0.002040, -0.000589, 9.824597, 0.001058, -0.000854
24.750000, 0.003026, 0.001156, 9.823258, 0.008221, 0.001840, 0.006113, -0.012047, -0.024829, -0.024829, 238.479074, 2.048484, -1.411569, 2.851630, -0.175116, 0.131753, -0.264382, 0.005140, 0.001805, 9.823400, 0.006740, 0.017648
24.800000, 0.003576, 0.001545, 9.824061, 0.001959, 0.006116, 0.004433, -0.016623, -0.013237, -0.013237, 236.959762, 2.058177, -1.418888, 2.866353, -0.174926, 0.131923, -0.265162, 0.003944, 0.001805, 9.824597, 0.009012, 0.020859
24.850000, -0.002666, 0.000983, 9.827255, 0.008068, 0.007337, 0.003822, -0.004834, -0.001887, -0.001887, 239.873924, 2.067917, -1.426242, 2.881186, -0.175015, 0.132096, -0.266122, -0.006828, 0.000608, 9.829385, 0.005731, -0.015544
24.900000, -0.000136, 0.002912, 9.826379, 0.003181, 0.006421, 0.007487, -0.006010, 0.007248, 0.007248, 238.414424, 2.077603, -1.433576, 2.896011, -0.174848, 0.132250, -0.267030, 0.001550, 0.004199, 9.825794, 0.016982, -0.000796
24.950000, -0.003433, 0.002248, 9.826028, 0.007915, 0.005352, 0.004280, 0.005230, 0.011410, 0.011410, 238.931394, 2.087314, -1.440928, 2.910912, -0.174879, 0.132357, -0.267920, -0.005631, 0.001805, 9.825794, 0.013108, -0.020019
25.000000, -0.003316, -0.000890, 9.823733, 0.005930, 0.002756, 0.005502, 0.009027, 0.008340, 0.008340, 238.552065, 2.097092, -1.448314, 2.925936, -0.175040, 0.132296, -0.268687, -0.003237, -0.002982, 9.822204, -0.005192, -0.019338
25.050000, -0.004705, -0.002145, 9.825688, 0.004250, 0.000007, 0.008251, 0.007500, -0.002473, -0.002473, 239.083871, 2.106923, -1.455720, 2.941055, -0.175385, 0.132282, -0.269565, -0.005631, -0.002982, 9.826991, -0.012510, -0.027435
25.100000, -0.005979, -0.003366, 9.822879, 0.001196, 0.001076, 0.007182, -0.002600, -0.010272, -0.010272, 239.494132, 2.116705, -1.463077, 2.956092, -0.175837, 0.132368, -0.270280, -0.006828, -0.004179, 9.821007, -0.019631, -0.034872
25.150000, -0.001461, -0.003136, 9.823910, 0.004555, 0.001992, 0.005502, -0.002987, -0.013167, -0.013167, 238.362666, 2.126475, -1.470415, 2.971142, -0.176088, 0.132351, -0.271052, 0.001550, -0.002982, 9.824597, -0.018288, -0.008524
25.200000, -0.003963, -0.000889, 9.822886, 0.006388, 0.003367, 0.007487, 0.002445, -0.013276, -0.013276, 236.866335, 2.136270, -1.477766, 2.986236, -0.176421, 0.132470, -0.271766, -0.005631, 0.000608, 9.822204, -0.005187, -0.023117
25.250000, -0.001373, -0.001427, 9.825349, 0.006388, 0.003214, 0.005502, 0.007216, -0.012684, -0.012684, 238.117544, 2.146067, -1.485105, 3.001366, -0.176666, 0.132447, -0.272617, 0.000353, -0.001785, 9.826991, -0.008321, -0.008009
25.300000, -0.005364, -0.000924, 9.825616, 0.009442, 0.001840, 0.004433, 0.019903, -0.017502, -0.017502, 238.211423, 2.156014, -1.492532, 3.016721, -0.177193, 0.132485, -0.273492, -0.008025, -0.000589, 9.825794, -0.005388, -0.031279
25.350000, -0.005524, 0.001432, 9.823569, 0.002570, 0.001229, 0.009778, 0.014376, -0.023690, -0.023690, 238.758436, 2.165901, -1.499914, 3.031981, -0.177677, 0.132715, -0.274246, -0.005631, 0.003002, 9.822204, 0.008349, -0.032220
25.400000, -0.002716, 0.003092, 9.822750, -0.002470, 0.002450, 0.005349, -0.003395, -0.024981, -0.024981, 239.217891, 2.175779, -1.507310, 3.047260, -0.177902, 0.133092, -0.274953, -0.000844, 0.004199, 9.822204, 0.018034, -0.015842
25.450000, -0.003747, -0.000553, 9.822422, 0.007915, 0.001229, 0.006418, 0.006168, -0.029837, -0.029837, 239.568807, 2.185688, -1.514709, 3.062571, -0.178368, 0.133272, -0.275642, -0.004434, -0.002982, 9.822204, -0.003223, -0.021856
25.500000, -0.004159, 0.003016, 9.823727, 0.007915, 0.006421, 0.008098, 0.016542, -0.020721, -0.020721, 238.059113, 2.195681, -1.522172, 3.078030, -0.178730, 0.133505, -0.276409, -0.004434, 0.005396, 9.824597, 0.017592, -0.024258
25.550000, 0.001421, 0.001571, 9.822095, 0.010359, 0.004436, 0.007182, 0.031996, -0.015131, -0.015131, 238.704180, 2.205689, -1.529624, 3.093543, -0.178900, 0.133353, -0.277085, 0.005140, 0.000608, 9.821007, 0.009167, 0.008287
25.600000, -0.007119, 0.004584, 9.825751, 0.002265, 0.000007, 0.008709, 0.026083, -0.025346, -0.025346, 238.893646, 2.215656, -1.537048, 3.108984, -0.179440, 0.133689, -0.277959, -0.012812, 0.006592, 9.828188, 0.026730, -0.041512
25.650000, -0.003354, 0.000762, 9.822186, -0.000942, 0.000923, 0.007640, 0.010448, -0.030779, -0.030779, 238.198288, 2.225644, -1.544479, 3.124455, -0.179878, 0.133890, -0.278634, -0.000844, -0.001785, 9.819810, 0.004447, -0.019563
25.700000, -0.001848, -0.000766, 9.822915, 0.005624, 0.001687, 0.008556, 0.012707, -0.033096, -0.033096, 238.931394, 2.235652, -1.551908, 3.139961, -0.180319, 0.133968, -0.279350, -0.000844, -0.001785, 9.823400, -0.004470, -0.010777
25.750000, -0.001963, 0.000776, 9.825360, 0.004250, 0.003978, 0.004280, 0.011775, -0.029152, -0.029152, 237.287946, 2.245708, -1.559368, 3.155563, -0.180685, 0.134111, -0.280204, -0.002040, 0.001805, 9.826991, 0.004528, -0.011449
25.800000, -0.003446, 0.001394, 9.824903, 0.008984, 0.001534, 0.009167, 0.023710, -0.032574, -0.032574, 238.598737, 2.255764, -1.566812, 3.171162, -0.181189, 0.134245, -0.281030, -0.004434, 0.001805, 9.824597, 0.008127, -0.020095
25.850000, -0.001166, 0.002359, 9.825437, -0.000942, 0.003061, 0.005197, 0.008814, -0.030665, -0.030665, 239.979495, 2.265859, -1.574293, 3.186854, -0.181470, 0.134472, -0.281888, 0.000353, 0.003002, 9.825794, 0.013754, -0.006802
25.900000, 0.006926, 0.001308, 9.827088, 0.000585, 0.003214, 0.005960, -0.001365, -0.024906, -0.024906, 239.440059, 2.275907, -1.581749, 3.202563, -0.181300, 0.134468, -0.282835, 0.012321, 0.000608, 9.828188, 0.007628, 0.040383
25.950000, 0.000828, 0.003761, 9.822721, 0.002112, 0.004283, 0.006418, -0.005644, -0.019205, -0.019205, 240.001318, 2.285963, -1.589233, 3.218312, -0.181280, 0.134763, -0.283541, -0.003237, 0.005396, 9.819810, 0.021936, 0.004830
26.000000, -0.000893, 0.002587, 9.823129, 0.007304, 0.003367, 0.005655, 0.003731, -0.017038, -0.017038, 240.188457, 2.296115, -1.596789, 3.234236, -0.181407, 0.134967, -0.284275, -0.002040, 0.001805, 9.823400, 0.015091, -0.005209
